Timestamp,Yaw,Pitch,Roll,Qtn[0], Qtn[1], Qtn[2], Qtn[3],Rate X,Rate Y,Rate Z,Accel X,Accel Y,Accel Z,Mag X,Mag Y,Mag Z,Temp,Pres,dTime,dTheta X,dTheta Y,dTheta Z,dVel X,dVel Y,dVel Z,MagNed X,MagNed Y,MagNed Z,AccelNed X,AccelNed Y,AccelNed Z,LinearAccel X,LinearAccel Y,LinearAccel Z,LinearAccelNed X,LinearAccelNed Y,LinearAccelNed Z,Amplitude,Distance,Light 1,Light 2,Light 3,Light 4,Comments
583.352,-139.761,0.463927,-179.001,0.343931,-0.938946,0.00679101,-0.00679924,-0.000200567,0.00157125,0.0111321,0.16986,-0.082333,10.0628,0.967025,0.639407,-0.382688,43.97,101.002,0.025001,0.00268068,0.00600832,0.0146595,0.0018463,0.00434846,0.255797,-1.15775,-0.133486,0.363643,0.0989999,-0.253835,-10.0609,0.0905601,-0.253035,0.270891,0.0989999,-0.253835,-0.267164,0,1000,0,0,0,0,
583.377,-139.697,0.466188,-179.002,0.344455,-0.938754,0.0067766,-0.00682015,-0.00037624,-0.00114388,-0.107355,-0.252297,0.621868,26.9743,0.964486,0.640704,-0.387042,43.97,101.002,0.024999,0.00287183,-4.42E-05,-0.0513653,0.00264978,0.00491067,0.36243,-1.15658,-0.132125,0.367961,0.261619,0.420972,-26.9781,-0.331983,0.451246,17.1823,0.261619,0.420972,-17.1843,0,1000,0,0,0,0,
583.402,-139.673,0.664403,-178.855,0.344621,-0.938671,0.00738287,-0.00888722,0.0515144,-0.0350163,0.0643177,0.438618,-4.46673,84.0075,0.967033,0.64214,-0.367209,43.96,100.976,0.025001,0.150529,-0.195417,-0.0128946,-0.0468607,-0.00481507,2.2234,-1.16054,-0.133386,0.343064,4.38399,-4.33888,-83.9008,0.325052,-4.66247,74.2163,4.38399,-4.33888,-74.1071,0,1000,0,0,0,0,
583.428,-139.761,0.772829,-178.767,0.343881,-0.938927,0.00778467,-0.0100338,0.0157732,-0.068427,0.131502,1.5349,4.25153,78.4324,0.964466,0.650138,-0.358988,43.97,100.939,0.024999,0.0928584,-0.103304,0.100469,-0.0181546,0.0814925,2.01075,-1.16458,-0.123895,0.331873,-2.01862,1.64877,-78.5193,1.4028,4.04078,68.6418,-2.01862,1.64877,-68.7255,0,1000,0,0,0,0,
583.453,-140.238,0.828463,-178.879,0.339977,-0.940355,0.0067383,-0.0101242,-0.0745904,-0.0411305,0.477956,-1.28286,1.11587,78.8407,0.970571,0.680724,-0.359395,43.97,101.002,0.025001,-0.10186,-0.0423824,0.496331,0.0143159,0.106766,1.95023,-1.18966,-0.0953319,0.331942,2.13511,1.22185,-78.8207,-1.42446,0.924335,69.0499,2.13511,1.22185,-69.0269,0,1000,0,0,0,0,
583.478,-140.714,0.916277,-179.008,0.336073,-0.941762,0.00546268,-0.0104395,-0.117935,-0.0430059,0.156913,2.56617,-0.345516,81.1754,0.975475,0.693836,-0.401863,43.97,101.002,0.024999,-0.1178,-0.0756314,0.494094,0.00964746,0.0114052,2.04033,-1.20341,-0.0792095,0.374145,0.126948,-2.15775,-81.1879,2.40955,-0.515006,71.3844,0.126948,-2.15775,-71.3941,0,1000,0,0,0,0,
583.503,-141.149,0.974244,-179.1,0.332493,-0.943035,0.0045779,-0.0106291,-0.0516505,-0.0407702,0.266636,0.753136,-0.564541,83.1327,0.968126,0.652431,-0.440829,43.95,100.985,0.025,-0.0807767,-0.0473859,0.45239,0.0109986,-0.00925944,2.06992,-1.17311,-0.0983722,0.414005,1.68718,-1.04225,-83.1144,0.586613,-0.718327,73.3416,1.68718,-1.04225,-73.3206,0,1000,0,0,0,0,
583.529,-141.261,1.04328,-179.089,0.331569,-0.943354,0.00448394,-0.0112265,0.00887734,-0.0428625,0.0230376,-0.113055,1.45779,84.5509,0.914938,0.494175,-0.416887,43.965,100.989,0.025,0.0174323,-0.0639564,0.124622,0.0104257,-0.00585207,2.10057,-1.0327,-0.186531,0.392247,1.21866,1.1221,-84.5473,-0.291376,1.30202,74.76,1.21866,1.1221,-74.7536,0,1000,0,0,0,0,
583.554,-141.336,1.11308,-179.077,0.330945,-0.943566,0.00438394,-0.0118313,0.0317826,-0.0424024,-0.0232374,1.07222,-0.380817,85.6579,0.973049,0.717244,-0.225872,43.97,100.989,0.025001,0.0166899,-0.0653093,0.0860379,0.0120557,0.00447638,2.13144,-1.2132,-0.0476,0.195348,1.5618,-1.005,-85.6453,0.881976,-0.538537,75.8673,1.5618,-1.005,-75.8516,0,1000,0,0,0,0,
583.579,-141.27,1.15504,-179.064,0.331483,-0.943372,0.00435949,-0.0122158,0.00830075,-0.0329773,0.0265026,0.0494996,-0.914964,85.5306,1.00904,0.761518,-0.454319,43.97,100.976,0.024999,0.0151676,-0.0397255,-0.0533624,0.0145957,0.0323755,2.15326,-1.27496,-0.0369902,0.421395,2.75206,-0.755643,-85.4879,-0.147922,-1.07484,75.7402,2.75206,-0.755643,-75.6942,0,1000,0,0,0,0,
583.605,-141.354,1.17522,-179.029,0.330782,-0.943614,0.00459987,-0.0124802,-0.0218721,0.000565466,0.0797071,0.512752,3.20932,85.9156,0.978036,0.68987,-0.401697,43.97,100.976,0.025001,0.0407345,-0.0154759,0.0959525,0.0317401,0.0733156,2.13934,-1.20497,-0.0716167,0.36981,-0.118443,2.15026,-85.9501,0.311883,3.04344,76.1253,-0.118443,2.15026,-76.1563,0,1000,0,0,0,0,
583.63,-141.452,1.16723,-179.073,0.329983,-0.943897,0.00427032,-0.0122836,-0.0517783,0.0118349,-0.0586598,1.21696,2.29713,86.4926,0.976821,0.683233,-0.398779,43.97,100.976,0.025,-0.0382264,0.0129168,0.11006,0.0307595,0.070515,2.15252,-1.19971,-0.0742052,0.367699,-0.132871,1.04248,-86.5252,1.01745,2.13878,76.7021,-0.132871,1.04248,-76.7315,0,1000,0,0,0,0,
583.655,-141.445,1.14803,-179.142,0.330051,-0.94388,0.00376278,-0.0119291,-0.0310115,-0.0166751,-0.133627,-0.320764,0.072549,88.0392,0.97427,0.689924,-0.386294,43.97,100.989,0.025,-0.0644801,0.0224239,0.00669483,-0.0152964,0.0221363,2.18508,-1.20119,-0.0678181,0.356319,2.40685,0.324522,-88.0063,-0.516988,-0.0741386,78.2485,2.40685,0.324522,-78.2125,0,1000,0,0,0,0,
583.68,-141.034,1.15916,-179.221,0.333437,-0.942694,0.00303334,-0.0118027,-0.0910197,-0.0138468,0.0423249,0.852255,2.51327,88.7372,0.975548,0.687272,-0.386194,43.97,100.976,0.024999,-0.0838799,-0.0136543,-0.395679,0.0151982,0.0660986,2.20428,-1.19974,-0.0797508,0.357004,-0.0881793,1.60949,-88.7623,0.65413,2.38018,78.9464,-0.0881793,1.60949,-78.9685,0,1000,0,0,0,0,
583.707,-141.164,1.14929,-179.243,0.332374,-0.943071,0.00289306,-0.0116538,0.0135209,0.00330476,0.113581,-0.719751,2.48487,89.2355,0.975558,0.685939,-0.38758,43.96,100.989,0.025001,-0.0155973,0.0149578,0.145122,0.0099924,-0.00817605,2.21961,-1.19899,-0.0781622,0.358844,1.136,2.59143,-89.2282,-0.91619,2.35555,79.4446,1.136,2.59143,-79.4344,0,1000,0,0,0,0,
583.732,-141.238,1.14837,-179.276,0.331764,-0.943288,0.0026317,-0.0115488,-0.0162237,0.00716963,0.0506059,-0.115137,-0.366223,89.6491,0.97681,0.687268,-0.388976,43.97,100.976,0.024999,-0.0275652,0.00523168,0.0902447,0.0113846,0.0331228,2.23682,-1.20079,-0.0765247,0.360611,2.42875,0.0283474,-89.617,-0.311418,-0.489897,79.8581,2.42875,0.0283474,-79.8232,0,1000,0,0,0,0,
583.757,-141.307,1.15618,-179.281,0.3312,-0.943486,0.00257321,-0.0115965,-0.0155614,0.00292569,0.0608948,0.892376,1.68403,90.3519,0.97434,0.68064,-0.383279,43.97,100.976,0.025,0.000106918,-0.00361425,0.0837838,0.00744988,0.0311671,2.25197,-1.1947,-0.0787624,0.354978,0.382394,1.01213,-90.3655,0.694759,1.56125,80.5609,0.382394,1.01213,-80.5718,0,1000,0,0,0,0,
583.782,-141.403,1.16963,-179.283,0.330402,-0.943764,0.00252958,-0.0117,0.0077629,-0.0115795,0.0809678,0.904745,1.54956,90.8504,0.974327,0.680594,-0.393166,43.955,100.964,0.025,0.00412727,-0.00889054,0.112652,0.00319489,0.0214108,2.26574,-1.19508,-0.076863,0.364653,0.484967,0.915551,-90.8622,0.70483,1.42708,81.0594,0.484967,0.915551,-81.0685,0,1000,0,0,0,0,
583.808,-141.538,1.1871,-179.284,0.329291,-0.944151,0.00248914,-0.0118395,0.0132065,-0.0187335,0.104194,0.217711,0.531335,91.1867,0.974352,0.677963,-0.387462,43.97,100.964,0.025001,0.00623189,-0.0124305,0.150885,0.00485058,0.0252893,2.27625,-1.19359,-0.0761826,0.358689,1.68732,0.563125,-91.1711,0.0148114,0.408937,81.3958,1.68732,0.563125,-81.3774,0,1000,0,0,0,0,
583.833,-141.705,1.21284,-179.271,0.327912,-0.944628,0.00253829,-0.0120848,0.00906297,-0.0213648,0.13145,-0.0884637,0.710322,91.592,0.975598,0.680628,-0.387473,43.9775,100.968,0.025,0.0202453,-0.0202933,0.182847,0.0074386,0.0298648,2.28428,-1.19661,-0.0714156,0.358046,1.87303,0.899048,-91.5712,-0.295763,0.585737,81.8013,1.87303,0.899048,-81.7775,0,1000,0,0,0,0,
583.858,-141.918,1.25044,-179.245,0.326147,-0.945233,0.00266601,-0.0124634,0.0171098,-0.0270477,0.167623,0.165603,1.33354,91.9692,0.973066,0.680599,-0.390385,43.97,100.964,0.024999,0.0342657,-0.031487,0.229451,0.00739013,0.0258276,2.29652,-1.19522,-0.0654384,0.36006,1.37443,1.23187,-91.9605,-0.0481216,1.20455,82.1786,1.37443,1.23187,-82.1667,0,1000,0,0,0,0,
583.884,-142.184,1.29832,-179.21,0.323947,-0.945982,0.00285006,-0.0129519,0.032768,-0.032685,0.2078,0.136062,1.3754,92.4738,0.973069,0.680607,-0.388973,43.97,100.964,0.025,0.0450577,-0.0409452,0.281934,0.00636467,0.0229811,2.30737,-1.19585,-0.059882,0.357407,1.48645,1.28066,-92.4633,-0.0858452,1.24041,82.6835,1.48645,1.28066,-82.6696,0,1000,0,0,0,0,
583.909,-142.519,1.35365,-179.172,0.321168,-0.946921,0.00304439,-0.0135064,0.0388865,-0.0350894,0.256801,0.337427,0.965353,93.0488,0.971772,0.685921,-0.387715,43.97,100.964,0.025001,0.0494112,-0.0472426,0.351345,0.00795553,0.0257002,2.32087,-1.19877,-0.0478766,0.354704,1.70727,0.831698,-93.0351,0.106065,0.823919,83.2589,1.70727,0.831698,-83.2413,0,1000,0,0,0,0,
583.934,-142.929,1.41791,-179.136,0.317774,-0.948056,0.0032169,-0.0141285,0.0339054,-0.0397519,0.309943,0.430057,0.981627,93.5565,0.969334,0.673972,-0.383319,43.97,100.951,0.025,0.0504115,-0.0548641,0.424995,0.00793238,0.0290131,2.33455,-1.19026,-0.047408,0.34901,1.76317,0.79361,-93.5427,0.187714,0.833948,83.7669,1.76317,0.79361,-83.7489,0,1000,0,0,0,0,
583.959,-143.412,1.49197,-179.096,0.313762,-0.94938,0.00340164,-0.0148367,0.0347509,-0.0469656,0.3614,0.658978,1.16329,94.1695,0.970586,0.673945,-0.390337,43.97,100.951,0.024999,0.0558149,-0.063249,0.498985,0.00953709,0.0282968,2.34814,-1.19233,-0.0382125,0.354258,1.63204,0.810085,-94.1613,0.40398,1.00885,84.3803,1.63204,0.810085,-84.3676,0,1000,0,0,0,0,
583.985,-143.973,1.57242,-179.057,0.309095,-0.950897,0.00358459,-0.0155939,0.0382024,-0.0526773,0.418666,0.509236,1.19682,94.7934,0.971868,0.669944,-0.394447,43.97,100.939,0.025,0.0584241,-0.0680466,0.577226,0.00794068,0.0264443,2.363,-1.19201,-0.0306045,0.356551,1.90621,0.936282,-94.7785,0.240491,1.03564,85.0046,1.90621,0.936282,-84.9847,0,1000,0,0,0,0,
584.01,-144.619,1.66407,-179.02,0.303717,-0.952613,0.00373594,-0.0164331,0.0413983,-0.0614657,0.47767,0.385059,1.09641,95.3897,0.970607,0.6713,-0.387457,43.97,100.939,0.025001,0.0590573,-0.0774646,0.660974,0.00753839,0.0249815,2.37764,-1.19239,-0.0154362,0.347572,2.25489,0.944461,-95.3654,0.100654,0.92894,85.6015,2.25489,0.944461,-85.5717,0,1000,0,0,0,0,
584.035,-145.353,1.77067,-178.986,0.297591,-0.954527,0.00384947,-0.0173857,0.0396654,-0.0712491,0.542838,0.193405,1.10287,96.1385,0.96817,0.658002,-0.387272,43.97,100.926,0.024999,0.0602067,-0.0904712,0.749583,0.00637477,0.0273496,2.39746,-1.18358,-0.00988992,0.345466,2.62569,1.08589,-96.103,-0.109214,0.92955,86.351,2.62569,1.08589,-86.3093,0,1000,0,0,0,0,
584.061,-146.18,1.89333,-178.962,0.290672,-0.956637,0.00385822,-0.0184405,0.0321513,-0.0793469,0.606299,0.0754427,1.20809,96.9842,0.970707,0.656693,-0.385743,43.97,100.926,0.025001,0.0537231,-0.104486,0.843075,0.00394442,0.0293461,2.41565,-1.18561,0.00443528,0.341511,2.90497,1.28572,-96.9398,-0.248131,1.0308,87.1974,2.90497,1.28572,-87.146,0,1000,0,0,0,0,
584.086,-147.101,2.03163,-178.949,0.282961,-0.958924,0.00377141,-0.0195977,0.0280355,-0.0853697,0.675247,0.257891,1.41809,97.806,0.964391,0.655292,-0.394412,43.97,100.913,0.025,0.0482472,-0.118182,0.935495,0.00427189,0.0330164,2.43682,-1.1804,0.0253224,0.347902,2.89908,1.42829,-97.7632,-0.0893085,1.23863,88.02,2.89908,1.42829,-87.9694,0,1000,0,0,0,0,
584.111,-148.129,2.17821,-178.953,0.274328,-0.961405,0.00356906,-0.0207852,0.0219509,-0.0886298,0.752573,0.516135,1.43053,98.5669,0.964398,0.655324,-0.387349,43.97,100.926,0.024999,0.0385206,-0.124418,1.04338,0.0068072,0.0337917,2.45732,-1.18022,0.0460709,0.338379,2.93997,1.39047,-98.525,0.143896,1.25163,88.7819,2.93997,1.39047,-88.7312,0,1000,0,0,0,0,
584.136,-149.279,2.32369,-178.966,0.264649,-0.964089,0.00332895,-0.0219414,0.0268931,-0.0855343,0.83972,0.536956,0.998473,99.5571,0.960683,0.644683,-0.38585,43.97,100.913,0.025,0.0357838,-0.121258,1.1647,0.00957105,0.0286219,2.47958,-1.17107,0.0619904,0.334894,3.4168,1.10168,-99.4988,0.139868,0.821868,89.773,3.4168,1.10168,-89.7051,0,1000,0,0,0,0,
584.162,-151.982,2.62274,-179.004,0.241809,-0.970015,0.00289423,-0.0243085,0.0283337,-0.08662,1.02989,0.628494,1.25348,101.059,0.95444,0.634005,-0.390092,43.97,100.913,0.024999,0.0454069,-0.122711,1.43115,0.011071,0.0287767,2.52175,-1.15797,0.109577,0.334937,3.76522,1.43257,-100.989,0.180337,1.08336,91.2774,3.76522,1.43257,-91.1951,0,1000,0,0,0,0,
584.189,-153.545,2.77601,-179.039,0.228549,-0.973195,0.00261701,-0.0254974,0.0266729,-0.0917122,1.13094,0.200367,1.22857,101.441,0.950661,0.631296,-0.397233,43.97,100.901,0.025001,0.0419337,-0.123284,1.57551,0.00616106,0.0300468,2.53256,-1.15104,0.139705,0.340096,4.43012,1.67661,-101.338,-0.27396,1.06454,91.6604,4.43012,1.67661,-91.5445,0,1000,0,0,0,0,
584.214,-155.24,2.94161,-179.087,0.214121,-0.976437,0.0022723,-0.0267766,0.0249118,-0.097809,1.2208,0.387955,1.25282,101.657,0.950634,0.635287,-0.395902,43.97,100.888,0.024999,0.0401653,-0.134596,1.70751,0.00525352,0.030597,2.54001,-1.14876,0.17662,0.336442,4.53915,1.69024,-101.55,-0.114645,1.09705,91.877,4.53915,1.69024,-91.7559,0,1000,0,0,0,0,
584.239,-157.07,3.10165,-179.152,0.198496,-0.9797,0.00187324,-0.0279939,0.0217511,-0.088828,1.32198,0.737283,1.325,101.472,0.946988,0.615372,-0.388562,43.95,100.897,0.025001,0.0362195,-0.128633,1.84181,0.0145118,0.0313602,2.54064,-1.13176,0.195568,0.327613,4.44812,1.689,-101.372,0.207366,1.18021,91.6939,4.44812,1.689,-91.5782,0,1000,0,0,0,0,
584.265,-159.052,3.25472,-179.234,0.181521,-0.982954,0.00141147,-0.0291405,0.0187024,-0.0906643,1.42574,0.322382,1.24685,101.266,0.941953,0.611321,-0.397132,43.97,100.876,0.024999,0.0319066,-0.121857,1.99338,0.00886038,0.0313164,2.53471,-1.11934,0.231717,0.334813,5.10771,1.83992,-101.128,-0.23366,1.11606,91.4884,5.10771,1.83992,-91.3343,0,1000,0,0,0,0,
584.29,-161.189,3.41205,-179.333,0.163173,-0.986131,0.000878682,-0.0303221,0.0177255,-0.0917638,1.53617,0.493379,1.30462,100.915,0.935674,0.607329,-0.391621,43.96,100.876,0.025,0.0291772,-0.127339,2.14559,0.00866617,0.0299079,2.52468,-1.10308,0.270622,0.32815,5.17796,1.90005,-100.773,-0.089509,1.19073,91.139,5.17796,1.90005,-90.9797,0,1000,0,0,0,0,
584.315,-163.488,3.56716,-179.453,0.143379,-0.989167,0.000253516,-0.0314866,0.0126636,-0.0911019,1.64869,0.514536,1.30104,100.338,0.931926,0.600654,-0.394442,43.97,100.863,0.025,0.0234258,-0.127496,2.30619,0.010113,0.0313874,2.51349,-1.08673,0.308236,0.329953,5.39608,1.95722,-100.184,-0.0948153,1.20769,90.5637,5.39608,1.95722,-90.3898,0,1000,0,0,0,0,
584.34,-165.956,3.71494,-179.599,0.122075,-0.991985,-0.000491203,-0.0325976,0.00570484,-0.0884273,1.76717,0.299971,1.05223,99.9693,0.925648,0.595313,-0.393141,43.97,100.876,0.025001,0.0144475,-0.124122,2.47431,0.00868655,0.0302336,2.50281,-1.06567,0.349902,0.328172,5.90803,1.84127,-99.7836,-0.334591,0.983826,90.1964,5.90803,1.84127,-89.9899,0,1000,0,0,0,0,
584.366,-168.606,3.85878,-179.769,0.0991468,-0.994501,-0.00134136,-0.0337011,-0.00239646,-0.0876183,1.89711,0.492258,1.24718,99.5586,0.918166,0.580647,-0.395931,43.97,100.863,0.024999,0.0084049,-0.125978,2.65507,0.00619683,0.0301467,2.49148,-1.03902,0.384545,0.330908,5.91957,2.05657,-99.3702,-0.166837,1.20786,89.7872,5.91957,2.05657,-89.5765,0,1000,0,0,0,0,
584.391,-171.434,3.98457,-179.971,0.0746253,-0.996605,-0.00234546,-0.0346867,-0.00912712,-0.0800209,2.01945,0.514094,1.30179,99.3177,0.911939,0.568667,-0.394495,43.97,100.851,0.025001,-0.00439153,-0.116121,2.83266,0.00831106,0.0307521,2.48433,-1.0114,0.422944,0.329888,6.13086,2.18937,-99.114,-0.166453,1.29687,89.5476,6.13086,2.18937,-89.3202,0,1000,0,0,0,0,
584.416,-174.44,4.08405,179.795,0.0485375,-0.998184,-0.00351211,-0.0355039,-0.0175133,-0.0693525,2.14444,0.401092,1.14723,98.7624,0.905678,0.560663,-0.394553,43.955,100.859,0.024999,-0.0183147,-0.100801,3.00777,0.00777522,0.0305643,2.47279,-0.981426,0.466348,0.331045,6.45685,2.13588,-98.5354,-0.296417,1.18214,88.9936,6.45685,2.13588,-88.7417,0,1000,0,0,0,0,
584.442,-177.632,4.15344,179.537,0.0207956,-0.999119,-0.00478973,-0.0361462,-0.0265092,-0.0551926,2.27529,0.413627,1.21118,98.4155,0.892977,0.569858,-0.403663,43.97,100.851,0.025001,-0.0255173,-0.084686,3.194,0.00841639,0.0312904,2.46508,-0.942825,0.528071,0.34251,6.62587,2.28292,-98.174,-0.295712,1.29019,88.6479,6.62587,2.28292,-88.3803,0,1000,0,0,0,0,
584.467,178.985,4.18577,179.254,-0.00860943,-0.999275,-0.00618208,-0.036575,-0.0270803,-0.0405837,2.40753,0.549992,1.27435,97.9595,0.885559,0.548611,-0.393605,43.955,100.838,0.025,-0.0327012,-0.0646631,3.38321,0.00900144,0.0285861,2.45183,-0.902681,0.55951,0.335008,6.64388,2.43239,-97.7135,-0.164857,1.40152,88.1927,6.64388,2.43239,-87.9197,0,1000,0,0,0,0,
584.492,175.406,4.17396,178.95,-0.0397187,-0.998505,-0.00769074,-0.0367528,-0.0286169,-0.0246696,2.54714,0.353989,1.12846,97.4963,0.876719,0.547198,-0.402363,43.97,100.825,0.024999,-0.0392877,-0.0408878,3.58003,0.00835045,0.028449,2.44172,-0.858268,0.610438,0.347418,6.95234,2.36579,-97.2265,-0.358848,1.30747,87.7302,6.95234,2.36579,-87.4328,0,1000,0,0,0,0,
584.517,171.627,4.11514,178.628,-0.0725195,-0.996649,-0.00931634,-0.036679,-0.0341086,-0.00696584,2.68527,0.469235,0.856826,97.1725,0.861701,0.527193,-0.402484,43.965,100.838,0.025001,-0.0453595,-0.0176256,3.77934,0.0104831,0.0296157,2.4334,-0.804442,0.641373,0.35209,6.89603,2.20339,-96.9074,-0.233572,1.0908,87.4068,6.89603,2.20339,-87.1137,0,1000,0,0,0,0,
584.543,167.65,4.00305,178.295,-0.106974,-0.993537,-0.0110257,-0.036319,-0.0386828,0.0114981,2.82939,0.393425,1.14305,96.9053,0.85038,0.521836,-0.399951,43.95,100.834,0.024999,-0.0469491,0.00871602,3.97945,0.0108196,0.0309157,2.42806,-0.747974,0.685554,0.354922,7.08078,2.57065,-96.6197,-0.290273,1.43372,87.1398,7.08078,2.57065,-86.8259,0,1000,0,0,0,0,
584.568,163.474,3.83505,177.959,-0.14302,-0.988994,-0.0128051,-0.0356661,-0.0338415,0.0296964,2.96809,0.315482,1.0247,96.6301,0.833974,0.520423,-0.400501,43.97,100.825,0.025001,-0.0465126,0.0349682,4.17893,0.0100251,0.0260245,2.42137,-0.680708,0.729591,0.362062,7.15807,2.53364,-96.3372,-0.339566,1.37267,86.8645,7.15807,2.53364,-86.5435,0,1000,0,0,0,0,
584.593,159.098,3.61303,177.626,-0.180623,-0.982829,-0.014645,-0.0347507,-0.034986,0.0454792,3.11095,0.577845,1.20446,96.3615,0.823934,0.512421,-0.396455,43.97,100.813,0.024999,-0.045091,0.0567956,4.38266,0.00656467,0.0270154,2.41249,-0.615952,0.765701,0.36459,6.97971,2.8954,-96.074,-0.0393319,1.60934,86.5956,6.97971,2.8954,-86.2803,0,1000,0,0,0,0,
584.619,154.509,3.32172,177.292,-0.219796,-0.974829,-0.0166466,-0.0334726,-0.0381471,0.0691344,3.26037,0.51094,1.04525,96.2261,0.810096,0.504367,-0.399605,43.955,100.796,0.025001,-0.052628,0.0910543,4.59898,0.0114401,0.0309832,2.40466,-0.543439,0.796316,0.37534,6.97021,2.87034,-95.9375,-0.0565329,1.50721,86.4598,6.97021,2.87034,-86.1437,0,1000,0,0,0,0,
584.644,149.717,2.96021,176.975,-0.260365,-0.964804,-0.0187218,-0.0318155,-0.0376318,0.0914021,3.40938,0.43122,1.13406,95.8646,0.794987,0.497634,-0.402827,43.97,100.8,0.024999,-0.0498117,0.124834,4.80707,0.0111624,0.0296815,2.40055,-0.464832,0.822288,0.386896,7.01638,3.07164,-95.5659,-0.0745544,1.65012,86.0976,7.01638,3.07164,-85.7721,0,1000,0,0,0,0,
584.669,144.708,2.53366,176.687,-0.302328,-0.952509,-0.0208431,-0.0298208,-0.0329739,0.110326,3.56745,0.378365,1.21995,95.5557,0.777315,0.498919,-0.393589,43.965,100.783,0.025,-0.0446217,0.152285,5.03008,0.0120983,0.0316032,2.39197,-0.374429,0.847403,0.386992,7.0253,3.28544,-95.2491,-0.0545807,1.78542,85.7879,7.0253,3.28544,-85.4553,0,1000,0,0,0,0,
584.694,139.471,2.04689,176.44,-0.345609,-0.937695,-0.0229478,-0.0275033,-0.020341,0.123856,3.72998,0.453662,1.10484,95.3237,0.759628,0.500146,-0.397064,43.97,100.775,0.025001,-0.0331384,0.175209,5.26216,0.014255,0.0275466,2.38627,-0.28025,0.863913,0.399946,6.79885,3.42452,-95.0267,0.103855,1.71251,85.5551,6.79885,3.42452,-85.233,0,1000,0,0,0,0,
584.72,134.017,1.51112,176.249,-0.389957,-0.920157,-0.0249813,-0.0249166,-0.0119394,0.13117,3.88245,-0.00110823,1.20475,95.0348,0.742,0.493426,-0.394725,43.97,100.762,0.025,-0.0186303,0.189933,5.48537,0.012432,0.030781,2.38153,-0.187712,0.865682,0.406448,7.07319,3.35833,-94.7193,-0.25938,1.84532,85.2654,7.07319,3.35833,-84.9256,0,1000,0,0,0,0,
584.745,128.346,0.942137,176.118,-0.435138,-0.899689,-0.0269039,-0.0221501,0.00158512,0.136718,4.03855,0.508738,0.731364,94.8176,0.724261,0.502641,-0.394124,43.97,100.762,0.025,-0.00490111,0.193199,5.70452,0.0118031,0.0233582,2.37327,-0.0812589,0.868029,0.41528,6.25532,3.61466,-94.5462,0.347703,1.39427,85.0477,6.25532,3.61466,-84.7524,0,1000,0,0,0,0,
584.77,122.47,0.336746,176.056,-0.480839,-0.876129,-0.0287499,-0.0191327,-0.00112811,0.146021,4.187,0.499016,1.33235,94.5001,0.706595,0.499868,-0.400341,43.97,100.762,0.024999,0.00729415,0.205808,5.91327,0.0127259,0.0308432,2.36742,0.0167852,0.851217,0.429613,6.63412,4.15695,-94.186,0.441456,2.00593,84.7298,6.63412,4.15695,-84.3923,0,1000,0,0,0,0,
584.796,116.367,-0.298648,176.058,-0.526965,-0.849187,-0.0305958,-0.0159173,0.00446429,0.151503,4.34592,0.628233,1.54233,94.2568,0.683782,0.51305,-0.398589,43.97,100.737,0.025,0.00800578,0.216893,6.1432,0.0145903,0.0302154,2.35905,0.131369,0.825764,0.436472,6.68733,4.56239,-93.9233,0.679282,2.21554,84.4863,6.68733,4.56239,-84.1295,0,1000,0,0,0,0,
584.821,110.032,-0.957039,176.139,-0.573234,-0.818656,-0.0323814,-0.0124726,0.017113,0.159587,4.50193,0.770143,1.07443,94.174,0.669882,0.515656,-0.394896,43.97,100.737,0.025,0.0154077,0.22854,6.37493,0.0186603,0.0265396,2.35556,0.231405,0.789666,0.439847,6.16311,4.73584,-93.862,0.933725,1.73372,84.4038,6.16311,4.73584,-84.0683,0,1000,0,0,0,0,
584.846,103.476,-1.61563,176.31,-0.619229,-0.784423,-0.0340014,-0.00886954,0.0211263,0.153044,4.65657,0.61859,0.761876,93.9274,0.64836,0.524855,-0.394432,43.95,100.708,0.025001,0.0272331,0.228247,6.59308,0.0147458,0.0258629,2.35071,0.336432,0.734685,0.4455,5.8578,4.75578,-93.629,0.89472,1.39188,84.1578,5.8578,4.75578,-83.8352,0,1000,0,0,0,0,
584.871,96.6961,-2.25815,176.571,-0.664618,-0.746324,-0.0354437,-0.00516599,0.0176486,0.15099,4.81043,0.525819,0.981538,93.6499,0.631879,0.534057,-0.398025,43.97,100.712,0.024999,0.0346662,0.223111,6.81347,0.0160074,0.0269212,2.3453,0.434168,0.669668,0.453823,6.04637,4.94524,-93.3303,0.911712,1.56693,83.8813,6.04637,4.94524,-83.5365,0,1000,0,0,0,0,
584.897,89.6916,-2.87115,176.914,-0.709004,-0.704246,-0.0367423,-0.00142758,0.0173106,0.14992,4.96062,0.666723,1.00016,93.4326,0.612792,0.556558,-0.396333,43.97,100.699,0.025001,0.0328462,0.216888,7.03122,0.0202393,0.0244366,2.33952,0.537583,0.587813,0.455885,6.05805,5.30392,-93.0928,1.15729,1.52682,83.6654,6.05805,5.30392,-83.299,0,1000,0,0,0,0,
584.922,82.481,-3.43854,177.331,-0.751868,-0.65822,-0.0378999,0.00226855,0.0123128,0.138064,5.10185,0.563774,1.2646,93.4986,0.59626,0.573738,-0.398679,43.955,100.683,0.025,0.023925,0.207783,7.22929,0.0183022,0.0240858,2.33706,0.62433,0.492233,0.45996,6.37494,5.37299,-93.1364,1.15118,1.71983,83.7331,6.37494,5.37299,-83.3427,0,1000,0,0,0,0,
584.947,75.0343,-3.94184,177.813,-0.792957,-0.608007,-0.0388904,0.00581163,-0.00127072,0.127247,5.26035,0.474725,0.804825,92.9915,0.587322,0.589662,-0.393669,43.97,100.699,0.025,0.00562084,0.190616,7.45605,0.0146253,0.0236183,2.33003,0.698659,0.390155,0.455278,5.97697,5.50258,-92.6406,1.14799,1.17772,83.2281,5.97697,5.50258,-82.8469,0,1000,0,0,0,0,
584.973,67.359,-4.38048,178.355,-0.831763,-0.553628,-0.0397526,0.00925709,-0.0141368,0.127966,5.40609,0.628005,0.526475,92.5668,0.575776,0.616165,-0.396028,43.965,100.67,0.024999,-0.0113689,0.185124,7.67567,0.0216125,0.0199406,2.31752,0.766797,0.267976,0.456318,5.89889,5.87419,-92.1954,1.37605,0.806741,82.8057,5.89889,5.87419,-82.4016,0,1000,0,0,0,0,
584.998,59.4594,-4.74594,178.948,-0.867782,-0.495133,-0.0405008,0.0125683,-0.0360769,0.129371,5.5697,0.804049,0.814155,92.0555,0.569218,0.651989,-0.399814,43.96,100.687,0.025,-0.0327494,0.18282,7.8912,0.0205088,0.0190526,2.30724,0.826069,0.131708,0.457399,6.43265,5.97546,-91.643,1.61436,0.993317,82.297,6.43265,5.97546,-81.8492,0,1000,0,0,0,0,
585.023,51.3186,-5.0354,179.559,-0.900581,-0.432446,-0.0412612,0.0155547,-0.0726052,0.130788,5.72893,0.628933,0.842786,91.7387,0.561501,0.671857,-0.404728,43.97,100.662,0.025,-0.0805897,0.186594,8.12438,0.0189735,0.02181,2.29782,0.849118,-0.00939234,0.45759,6.63276,5.80594,-91.3203,1.48854,0.917902,81.983,6.63276,5.80594,-81.5265,0,1000,0,0,0,0,
585.048,42.9473,-5.24407,-179.827,-0.929585,-0.365754,-0.0420184,0.0181532,-0.107484,0.136365,5.88111,0.749466,0.850843,91.4983,0.563828,0.702456,-0.398205,43.97,100.649,0.025,-0.13267,0.192137,8.34833,0.0132695,0.0251393,2.29037,0.863905,-0.157186,0.445953,7.05893,5.78628,-91.049,1.6446,0.821333,81.7456,7.05893,5.78628,-81.2552,0,1000,0,0,0,0,
585.074,34.3556,-5.38602,-179.205,-0.954218,-0.295316,-0.042841,0.0204968,-0.129847,0.156042,6.02693,0.510666,0.483773,91.4395,0.567406,0.733019,-0.401527,43.97,100.636,0.025001,-0.171548,0.21731,8.56339,0.0171197,0.0226909,2.2873,0.852798,-0.311624,0.44285,7.06227,5.77847,-90.9857,1.42996,0.348485,81.6899,7.06227,5.77847,-81.192,0,1000,0,0,0,0,
585.099,25.5583,-5.46039,-178.568,-0.973915,-0.221506,-0.0436881,0.0227096,-0.143912,0.180644,6.17235,0.897464,0.932875,91.0339,0.574816,0.756956,-0.404577,43.97,100.636,0.025,-0.191671,0.247766,8.76502,0.016596,0.0256586,2.27726,0.813952,-0.460755,0.43848,8.04117,5.33381,-90.5303,1.82941,0.689205,81.2877,8.04117,5.33381,-80.7366,0,1000,0,0,0,0,
585.124,16.5445,-5.46408,-177.915,-0.988182,-0.144547,-0.0445464,0.0248427,-0.14197,0.199127,6.31758,0.507534,0.799411,90.6002,0.59101,0.788915,-0.406068,43.955,100.62,0.025,-0.202489,0.282433,8.97872,0.0177555,0.0240833,2.26868,0.758256,-0.61261,0.431657,8.04021,4.99392,-90.1095,1.44011,0.444682,80.8575,8.04021,4.99392,-80.3157,0,1000,0,0,0,0,
585.149,7.34192,-5.37372,-177.243,-0.99649,-0.0650629,-0.0452293,0.0269785,-0.134183,0.208459,6.44,0.422134,0.811182,90.4552,0.609699,0.824858,-0.410376,43.97,100.624,0.025,-0.195178,0.300268,9.16718,0.0160897,0.023644,2.26305,0.675463,-0.763582,0.425703,8.36017,4.64651,-89.9527,1.33933,0.342237,80.7157,8.36017,4.64651,-80.159,0,1000,0,0,0,0,
585.175,-2.03366,-5.17425,-176.567,-0.998399,0.0163683,-0.0456421,0.0291163,-0.12639,0.211871,6.56614,0.260309,0.664936,90.3952,0.631049,0.84225,-0.407151,43.9725,100.603,0.024999,-0.183226,0.308645,9.34317,0.0182961,0.0244707,2.25947,0.565297,-0.885736,0.41145,8.56373,4.4478,-89.8815,1.14356,0.0808997,80.6588,8.56373,4.4478,-80.0877,0,1000,0,0,0,0,
585.2,-11.5727,-4.84817,-175.9,-0.993531,0.0991591,-0.0456563,0.0312943,-0.114735,0.205336,6.67474,0.454008,0.561022,90.2165,0.654943,0.855642,-0.409405,43.97,100.599,0.025001,-0.163834,0.302945,9.51354,0.0195662,0.0223568,2.25846,0.433504,-0.98981,0.401295,9.07876,4.1535,-89.6653,1.28173,-0.136669,80.4828,9.07876,4.1535,-79.8716,0,1000,0,0,0,0,
585.225,-21.2601,-4.37914,-175.276,-0.981577,0.182628,-0.0451155,0.0334357,-0.112656,0.184448,6.78989,0.344118,1.13721,86.5848,0.68513,0.874428,-0.40166,43.97,100.573,0.025,-0.152416,0.279659,9.6736,0.0137895,0.023866,2.21592,0.285291,-1.08159,0.379634,8.64159,3.07335,-86.1058,1.09193,0.332969,76.8528,8.64159,3.07335,-76.3121,0,1000,0,0,0,0,
585.251,-31.0607,-3.76825,-174.743,-0.962358,0.26587,-0.0439163,0.0353661,-0.113167,0.158442,6.86376,0.198752,0.275275,76.5583,0.721628,0.890529,-0.406349,43.95,100.569,0.025,-0.160939,0.246648,9.80205,0.00746218,0.0181062,2.03416,0.121897,-1.15209,0.369778,7.94081,3.08552,-76.0836,0.842406,-0.620089,66.8268,7.94081,3.08552,-66.2898,0,1000,0,0,0,0,
585.276,-40.9458,-3.04285,-174.327,-0.935819,0.347982,-0.0421464,0.037071,-0.125588,0.152653,6.93013,0.631848,0.429371,54.4073,0.754375,0.901293,-0.412475,43.97,100.573,0.024999,-0.167919,0.222758,9.90194,0.0155163,0.0164452,1.61714,-0.0583727,-1.19074,0.360949,5.89379,1.44138,-54.0733,1.15173,-0.537428,44.6753,5.89379,1.44138,-44.2796,0,1000,0,0,0,0,
585.301,-50.9143,-2.24217,-174.058,-0.901957,0.42826,-0.0399177,0.0383933,-0.139955,0.145513,6.99762,0.170288,0.680039,27.6281,0.789813,0.889535,-0.406748,43.97,100.573,0.025001,-0.187323,0.216382,9.99786,0.00792109,0.0115035,0.942212,-0.229562,-1.18747,0.343131,2.48199,0.408196,-27.5223,0.553452,-0.33311,17.8944,2.48199,0.408196,-17.7285,0,1000,0,0,0,0,
585.326,-60.9784,-1.39765,-173.982,-0.860798,0.506087,-0.037125,0.0390476,-0.172629,0.13983,7.07179,0.00649666,-0.016484,9.7501,0.820158,0.883036,-0.40837,43.97,100.561,0.025,-0.240778,0.213478,10.1024,0.00183562,0.00835177,0.405641,-0.411278,-1.15708,0.333461,1.02599,0.291373,-9.6916,0.245378,-1.04288,0.0132144,1.02599,0.291373,0.102142,0,1000,0,0,0,0,
585.352,-71.1593,-0.522607,-174.078,-0.81235,0.58086,-0.0337592,0.0393619,-0.192253,0.126738,7.16322,-0.267237,0.685774,1.56509,0.854324,0.872596,-0.404128,43.97,100.561,0.025,-0.262018,0.193951,10.2254,-0.00251116,0.01093,0.108279,-0.585933,-1.09958,0.319721,-0.574245,0.0707254,-1.62986,-0.177908,-0.324646,-8.17599,-0.574245,0.0707254,8.16389,0,1000,0,0,0,0,
585.377,-81.4563,0.34571,-174.369,-0.756799,0.651793,-0.029764,0.0391877,-0.227783,0.115451,7.24539,-0.637482,0.663813,-1.66965,0.882213,0.854092,-0.412654,43.965,100.544,0.024999,-0.302558,0.178015,10.3422,-0.0104781,0.015506,-0.0126381,-0.749222,-1.00665,0.321533,-0.908554,0.498391,1.60028,-0.696575,-0.297095,-11.416,-0.908554,0.498391,11.394,0,1000,0,0,0,0,
585.402,-91.8917,1.18999,-174.843,-0.694261,0.718242,-0.0251186,0.0387372,-0.230636,0.0914481,7.34999,-0.577612,-0.0655591,-3.48941,0.911404,0.831655,-0.411166,43.95,100.544,0.025001,-0.328446,0.145944,10.4777,-0.0187375,0.00178334,-0.0785903,-0.895085,-0.889097,0.315745,-0.231555,0.513115,3.49242,-0.781006,-0.945722,-13.2414,-0.231555,0.513115,13.2862,0,1000,0,0,0,0,
585.427,-102.491,1.9558,-175.456,-0.624875,0.779531,-0.0202378,0.038113,-0.218829,0.102335,7.45013,-0.0574647,-0.0037749,-4.28728,0.929278,0.805226,-0.400113,43.965,100.536,0.025,-0.316426,0.138339,10.6321,-0.00908181,-0.000455153,-0.116059,-1.01799,-0.737453,0.303147,-0.347094,-0.0136904,4.27358,-0.39171,-0.77928,-14.0446,-0.347094,-0.0136904,14.0673,0,1000,0,0,0,0,
585.453,-113.231,2.5759,-176.165,-0.549178,0.834733,-0.0155739,0.0371667,-0.18054,0.126186,7.5322,0.0730866,-0.743447,-4.26053,0.943413,0.769436,-0.397474,43.97,100.523,0.025,-0.278402,0.170771,10.7587,0.00198429,-0.0105538,-0.107277,-1.10776,-0.566994,0.302368,0.314719,-0.424887,4.29309,-0.367071,-1.39789,-14.0225,0.314719,-0.424887,14.0868,0,1000,0,0,0,0,
585.478,-124.07,3.04696,-176.943,-0.467976,0.882939,-0.0110882,0.0359778,-0.168782,0.124341,7.58721,-0.421915,0.155093,-4.33913,0.957427,0.749551,-0.402223,43.97,100.498,0.024999,-0.240619,0.185215,10.8443,-0.0104778,-0.00115064,-0.10695,-1.18414,-0.376578,0.310275,-0.212728,0.374974,4.341,-0.942495,-0.366463,-14.1051,-0.212728,0.374974,14.1347,0,1000,0,0,0,0,
585.503,-135.005,3.36377,-177.808,-0.381888,0.923545,-0.00643237,0.034426,-0.180312,0.132735,7.6496,-0.390487,0.408593,-4.32616,0.962837,0.695093,-0.403746,43.97,100.498,0.025001,-0.247527,0.187672,10.9318,-0.0102681,0.007045,-0.10805,-1.19737,-0.193119,0.319726,-0.308712,0.502646,4.32286,-0.965136,0.0347175,-14.0959,-0.308712,0.502646,14.1166,0,1000,0,0,0,0,
585.528,-146.012,3.49866,-178.73,-0.291792,0.95593,-0.00167602,0.0324308,-0.180875,0.142346,7.68283,-0.354654,0.360224,-4.425,0.958,0.664533,-0.399058,43.955,100.481,0.024999,-0.255722,0.200753,10.9964,-0.0108226,0.00734277,-0.109943,-1.18863,0.0105564,0.325048,-0.186094,0.4272,4.42933,-0.952319,0.143484,-14.1981,-0.186094,0.4272,14.2231,0,1000,0,0,0,0,
585.555,-157.078,3.44849,-179.643,-0.198516,0.979631,0.00292679,0.0301078,-0.158563,0.141739,7.72516,-0.55873,-0.199439,-4.4642,0.944351,0.628581,-0.401633,43.97,100.46,0.025001,-0.236323,0.210172,11.0541,-0.0114898,-0.0022038,-0.112195,-1.13603,0.20479,0.340185,0.333134,-0.0454636,4.49088,-1.14784,-0.26035,-14.24,0.333134,-0.0454636,14.2846,0,1000,0,0,0,0,
585.58,-168.202,3.23791,179.496,-0.102853,0.994286,0.00727844,0.0276504,-0.143803,0.135691,7.7681,-0.326423,0.0357465,-4.57502,0.928123,0.601948,-0.397426,43.97,100.46,0.024999,-0.205955,0.198945,11.1156,-0.0118587,-0.000823514,-0.113322,-1.05168,0.39168,0.349643,0.0669847,0.00937894,4.58629,-0.879594,0.121793,-14.3528,0.0669847,0.00937894,14.38,0,1000,0,0,0,0,
585.605,-179.362,2.86628,178.687,-0.00584851,0.999605,0.0115958,0.0249447,-0.154897,0.132883,7.79808,-0.463953,0.42217,-4.54224,0.899377,0.559309,-0.393335,43.96,100.443,0.025,-0.208501,0.196923,11.1588,-0.0121151,0.00775626,-0.113742,-0.924621,0.539892,0.36057,0.23226,0.320558,4.56823,-0.953691,0.646355,-14.3212,0.23226,0.320558,14.362,0,1000,0,0,0,0,
585.631,169.45,2.33685,177.937,0.0915331,0.995431,0.0160483,0.0219565,-0.164898,0.141521,7.81725,-0.137546,0.148204,-4.52989,0.867979,0.533895,-0.396751,43.97,100.422,0.025001,-0.235762,0.201549,11.1966,-0.0055121,0.0076395,-0.113419,-0.774191,0.672376,0.379977,-0.0493091,-0.00603883,4.53413,-0.53688,0.50048,-14.3091,-0.0493091,-0.00603883,14.3279,0,1000,0,0,0,0,
585.656,158.241,1.67415,177.311,0.188334,0.981716,0.020287,0.0187716,-0.162258,0.129727,7.84061,-0.5304,-0.258176,-4.47169,0.832752,0.515105,-0.400439,43.97,100.41,0.025,-0.22829,0.198817,11.2304,-0.00871812,-0.00430283,-0.113034,-0.600824,0.773592,0.399658,0.198146,-0.582684,4.46824,-0.816526,0.201177,-14.2505,0.198146,-0.582684,14.262,0,1000,0,0,0,0,
585.681,147.008,0.925137,176.804,0.283611,0.9585,0.0244427,0.0156549,-0.18734,0.114584,7.86678,-0.0484757,0.735936,-4.61078,0.80131,0.497689,-0.39837,43.955,100.397,0.024999,-0.245836,0.172394,11.2638,-0.0129964,0.00867311,-0.114439,-0.419285,0.838173,0.4125,0.237908,0.415171,4.64482,-0.206605,1.28181,-14.388,0.237908,0.415171,14.4386,0,1000,0,0,0,0,
585.706,135.756,0.0822988,176.421,0.376372,0.925942,0.028655,0.0124232,-0.198603,0.12121,7.88689,-0.740053,-0.0720893,-4.48823,0.762193,0.494853,-0.395456,43.97,100.385,0.025001,-0.279062,0.177177,11.2917,-0.0081385,0.00678064,-0.112873,-0.219089,0.868345,0.424477,0.279896,-0.764089,4.47604,-0.754121,0.53921,-14.2629,0.279896,-0.764089,14.2698,0,1000,0,0,0,0,
585.732,124.468,-0.803612,176.221,0.465803,0.884246,0.032438,0.00915708,-0.185122,0.103703,7.91902,-0.590764,0.198084,-4.49272,0.722998,0.502624,-0.396997,43.97,100.372,0.025,-0.266725,0.160232,11.3322,-0.0198242,-0.00116602,-0.113072,-0.0138137,0.860081,0.439356,0.28884,-0.594699,4.48728,-0.453405,0.843464,-14.2642,0.28884,-0.594699,14.281,0,1000,0,0,0,0,
585.757,113.145,-1.71183,176.206,0.55093,0.833761,0.0358515,0.0057755,-0.185003,0.113051,7.93247,-0.257943,0.276598,-4.50368,0.682461,0.520984,-0.405864,43.97,100.334,0.024999,-0.260332,0.158972,11.3654,-0.0101296,0.00632207,-0.112869,0.190336,0.808953,0.459642,0.134051,-0.369681,4.50239,0.0346214,0.924425,-14.2716,0.134051,-0.369681,14.2961,0,1000,0,0,0,0,
585.782,101.799,-2.61606,176.377,0.630765,0.774994,0.0389121,0.00222314,-0.177031,0.11434,7.94023,-0.468271,0.306822,-4.44405,0.650864,0.52615,-0.404259,43.955,100.322,0.025,-0.253341,0.169297,11.3831,-0.0110961,0.00359164,-0.111727,0.360131,0.719084,0.465948,0.162103,-0.651726,4.42855,-0.0212554,0.924983,-14.208,0.162103,-0.651726,14.2223,0,1000,0,0,0,0,
585.808,90.4351,-3.45522,176.739,0.70442,0.708573,0.041416,-0.00135475,-0.164524,0.103161,7.93513,-0.443669,0.0877915,-4.4171,0.622918,0.551257,-0.404343,43.97,100.309,0.025001,-0.23774,0.156914,11.3877,-0.0147837,0.00459381,-0.110368,0.522824,0.599554,0.4718,-0.158239,-0.710167,4.38018,0.146585,0.643919,-14.1772,-0.158239,-0.710167,14.1739,0,1000,0,0,0,0,
585.833,79.0802,-4.19357,177.27,0.770999,0.635339,0.0433617,-0.0049286,-0.156847,0.0955273,7.92246,-0.648641,0.29689,-4.3823,0.597457,0.583036,-0.400237,43.965,100.309,0.024999,-0.223947,0.14614,11.3628,-0.0122553,0.00435717,-0.110102,0.660066,0.447658,0.470096,-0.0971299,-0.967148,4.33228,0.0675399,0.762082,-14.1387,-0.0971299,-0.967148,14.126,0,1000,0,0,0,0,
585.858,67.7276,-4.79278,177.94,0.829923,0.556019,0.0447226,-0.00838067,-0.151404,0.0831063,7.90528,-0.439944,-0.0297177,-4.35194,0.580786,0.618778,-0.410026,43.97,100.271,0.025001,-0.218028,0.127041,11.343,-0.0149804,0.00248971,-0.109893,0.764276,0.273388,0.47902,-0.476107,-0.671333,4.2961,0.378346,0.32112,-14.1051,-0.476107,-0.671333,14.0898,0,1000,0,0,0,0,
585.883,56.3745,-5.23807,178.726,0.880673,0.471384,0.04552,-0.0117928,-0.144181,0.0762881,7.89987,-0.867669,-0.133282,-4.32161,0.569117,0.665244,-0.405734,43.965,100.254,0.024999,-0.205283,0.117893,11.3278,-0.0136889,-0.00435162,-0.108926,0.838867,0.0766507,0.470628,-0.887723,-0.920682,4.22034,0.0264438,0.0835874,-14.072,-0.887723,-0.920682,14.0141,0,1000,0,0,0,0,
585.909,45.0268,-5.51144,179.575,0.922784,0.382289,0.0458325,-0.0149854,-0.156882,0.07505,7.88742,-0.478607,0.159777,-4.43181,0.560061,0.698436,-0.401079,43.97,100.246,0.025001,-0.212859,0.10817,11.3107,-0.0150992,0.00102427,-0.109348,0.858411,-0.124748,0.458163,-0.547852,-0.727894,4.36641,0.462028,0.232113,-14.18,-0.547852,-0.727894,14.1602,0,1000,0,0,0,0,
585.934,33.672,-5.63087,-179.559,0.955921,0.289463,0.0458988,-0.017909,-0.172998,0.0911134,7.88577,-0.629459,0.420546,-4.37163,0.567392,0.73298,-0.408585,43.97,100.208,0.024999,-0.234756,0.123903,11.3112,-0.0165431,0.0054472,-0.108742,0.845143,-0.32146,0.456653,-0.62619,-0.962958,4.28543,0.331495,0.345454,-14.1178,-0.62619,-0.962958,14.0792,0,1000,0,0,0,0,
585.959,22.3335,-5.61057,-178.697,0.979721,0.193967,0.0458122,-0.0206228,-0.173322,0.11493,7.87034,-0.49811,0.0870048,-4.28931,0.581007,0.774253,-0.404707,43.97,100.196,0.025,-0.247581,0.154847,11.2931,-0.00941269,0.00441521,-0.108408,0.797489,-0.519158,0.44194,-0.776026,-0.518315,4.21699,0.459391,-0.134698,-14.0336,-0.776026,-0.518315,14.0107,0,1000,0,0,0,0,
585.984,11.0216,-5.4341,-177.846,0.993998,0.096795,0.0453736,-0.0232364,-0.165117,0.112557,7.85417,-0.536946,0.349298,-4.29788,0.598334,0.824798,-0.410774,43.965,100.179,0.025,-0.237259,0.167083,11.2697,-0.0195766,0.0047749,-0.106866,0.709907,-0.71716,0.434447,-0.825068,-0.680854,4.21162,0.39053,-0.017086,-14.0407,-0.825068,-0.680854,14.0054,0,1000,0,0,0,0,
586.01,-0.269868,-5.1017,-177.032,0.998674,-0.0011992,0.0445519,-0.0257699,-0.151187,0.121413,7.8485,-0.488172,0.350794,-4.28231,0.629785,0.842241,-0.407195,43.96,100.158,0.025001,-0.220825,0.174698,11.2574,-0.0112853,0.00464693,-0.106503,0.59094,-0.86499,0.417599,-0.867597,-0.567997,4.19812,0.382726,-0.154351,-14.0242,-0.867597,-0.567997,13.9919,0,1000,0,0,0,0,
586.035,-11.5475,-4.6108,-176.282,0.99373,-0.0991681,0.0432615,-0.028203,-0.139917,0.111458,7.85254,-0.716659,0.412867,-4.2382,0.652362,0.864949,-0.405449,43.97,100.158,0.025,-0.203805,0.170088,11.2567,-0.0180678,0.00862868,-0.105749,0.431596,-0.995976,0.399823,-1.16836,-0.462288,4.1313,0.070628,-0.220129,-13.9797,-1.16836,-0.462288,13.925,0,1000,0,0,0,0,
586.06,-22.8079,-3.96413,-175.627,0.979219,-0.196169,0.0414176,-0.0305398,-0.126295,0.098491,7.8519,-0.599432,0.380478,-4.16716,0.687576,0.885043,-0.40744,43.97,100.12,0.025,-0.185301,0.15243,11.2566,-0.0156992,0.00772546,-0.104978,0.256585,-1.09892,0.385499,-1.0844,-0.300199,4.07471,0.077628,-0.364435,-13.909,-1.0844,-0.300199,13.8685,0,1000,0,0,0,0,
586.085,-34.0366,-3.18396,-175.089,0.955313,-0.291157,0.0390757,-0.0328293,-0.106618,0.0862364,7.838,-0.468483,-0.16771,-4.11071,0.730425,0.895864,-0.411799,43.97,100.107,0.025,-0.159326,0.13512,11.2433,-0.0143462,0.00253826,-0.103945,0.0696728,-1.16671,0.373645,-0.680244,0.236424,4.07761,0.0754817,-1.00487,-13.8534,-0.680244,0.236424,13.8714,0,1000,0,0,0,0,
586.111,-45.2363,-2.28827,-174.689,0.922269,-0.383244,0.0362261,-0.0350862,-0.09437,0.0661809,7.83238,-0.9787,0.240212,-4.10278,0.765695,0.906642,-0.416422,43.96,100.091,0.024999,-0.132429,0.110604,11.2323,-0.0179825,-0.00173836,-0.103095,-0.138873,-1.19669,0.361025,-1.24232,0.373681,4.02062,-0.587663,-0.665559,-13.8467,-1.24232,0.373681,13.8144,0,1000,0,0,0,0,
586.136,-56.4007,-1.31306,-174.491,0.880485,-0.471494,0.0327945,-0.0369409,-0.116108,0.061805,7.81282,-0.143506,0.648768,-4.12834,0.798561,0.90286,-0.408123,43.97,100.07,0.025,-0.149442,0.0875398,11.2112,-0.0140357,0.0137305,-0.103242,-0.343439,-1.17787,0.337777,-0.998706,-0.379936,4.04263,0.0809197,-0.291203,-13.8743,-0.998706,-0.379936,13.8364,0,1000,0,0,0,0,
586.161,-67.5564,-0.336994,-174.504,0.830315,-0.55522,0.0290985,-0.0382192,-0.118317,0.069047,7.81762,-0.732525,0.125482,-4.12922,0.836525,0.891116,-0.402307,43.97,100.044,0.025001,-0.169441,0.104419,11.2067,-0.0107676,0.00816783,-0.102558,-0.536797,-1.12479,0.32002,-0.769848,0.500629,4.09383,-0.674922,-0.812564,-13.8778,-0.769848,0.500629,13.8876,0,1000,0,0,0,0,
586.187,-78.6985,0.638054,-174.693,0.772291,-0.633555,0.0250519,-0.0393262,-0.10953,0.0520595,7.80335,-0.436247,0.255776,-4.1042,0.870766,0.867344,-0.407677,43.955,100.019,0.024999,-0.155641,0.0845167,11.1944,-0.0187183,0.000727415,-0.102218,-0.712509,-1.03402,0.31599,-0.698605,0.259091,4.06756,-0.545309,-0.650008,-13.8554,-0.698605,0.259091,13.8613,0,1000,0,0,0,0,
586.212,-89.8438,1.55708,-175.071,0.706937,-0.705838,0.02075,-0.0400309,-0.116713,0.0583585,7.80535,-0.577669,0.30258,-4.00351,0.901223,0.843571,-0.408941,43.97,100.007,0.025,-0.159379,0.0848866,11.191,-0.00934984,0.00968715,-0.100775,-0.873105,-0.912375,0.310335,-0.646731,0.468017,3.97694,-0.843792,-0.538615,-13.7574,-0.646731,0.468017,13.7707,0,1000,0,0,0,0,
586.237,-112.12,3.10579,-176.326,0.557111,-0.829378,0.0114634,-0.0403631,-0.11788,0.0509955,7.77809,-0.540118,-0.0753558,-4.02447,0.940779,0.781311,-0.410515,43.97,99.982,0.025,-0.163878,0.0741848,11.1558,-0.0146493,0.00054032,-0.099997,-1.10775,-0.584799,0.308103,-0.0482024,0.366601,4.04439,-1.07074,-0.702043,-13.7837,-0.0482024,0.366601,13.8381,0,1000,0,0,0,0,
586.262,-123.258,3.66646,-177.157,0.474092,-0.879545,0.00662033,-0.0399214,-0.122421,0.0530159,7.76956,-0.566026,0.251391,-3.93472,0.948585,0.749514,-0.399706,43.97,99.944,0.025,-0.166839,0.0772859,11.1423,-0.0138755,0.000171612,-0.0991977,-1.1744,-0.389546,0.300636,-0.200758,0.507593,3.94559,-1.19232,-0.233386,-13.6964,-0.200758,0.507593,13.7393,0,1000,0,0,0,0,
586.288,-134.394,4.03612,-178.103,0.386734,-0.921371,0.0016044,-0.0388694,-0.145814,0.0703012,7.75854,-0.506186,0.293436,-3.9545,0.953926,0.705675,-0.404276,43.97,99.919,0.025,-0.191287,0.0945362,11.1268,-0.011501,0.00938296,-0.0995825,-1.19797,-0.196307,0.312608,-0.143991,0.459259,3.96847,-1.19552,-0.0299603,-13.7186,-0.143991,0.459259,13.7622,0,1000,0,0,0,0,
586.313,-145.524,4.2026,-179.114,0.295862,-0.954495,-0.00348861,-0.0373072,-0.143041,0.0748632,7.74927,-0.613674,0.0752784,-3.96267,0.947865,0.668446,-0.403731,43.97,99.906,0.024999,-0.204804,0.10693,11.1122,-0.0141542,0.000403098,-0.0995126,-1.18492,0.00469862,0.32283,0.187956,0.294672,3.99535,-1.33139,-0.0757006,-13.7289,0.187956,0.294672,13.7891,0,1000,0,0,0,0,
586.338,-156.66,4.16707,179.862,0.202187,-0.978671,-0.00853298,-0.0353615,-0.147562,0.0782511,7.75282,-0.626222,0.242418,-3.95984,0.936781,0.627212,-0.40187,43.95,99.877,0.025001,-0.204079,0.111146,11.1156,-0.0167896,0.00550616,-0.0987981,-1.13287,0.193218,0.334243,0.216959,0.347252,3.99545,-1.33789,0.265949,-13.7277,0.216959,0.347252,13.7892,0,1000,0,0,0,0,
586.364,-167.783,3.9218,178.863,0.106684,-0.993655,-0.0135041,-0.0329659,-0.14559,0.0869287,7.74004,-0.721598,0.443915,-3.87412,0.923106,0.595246,-0.404528,43.965,99.864,0.024999,-0.207874,0.124276,11.1076,-0.0164095,0.00428789,-0.0980238,-1.05215,0.372888,0.352154,0.366448,0.454775,3.92244,-1.39144,0.63786,-13.643,0.366448,0.454775,13.7162,0,1000,0,0,0,0,
586.389,-178.844,3.48085,177.936,0.0106262,-0.99932,-0.0183074,-0.0301835,-0.145098,0.0945153,7.70207,-0.661888,0.284719,-3.91393,0.896758,0.569857,-0.407766,43.96,99.83,0.025001,-0.205813,0.134335,11.0566,-0.0165164,0.00699988,-0.0979664,-0.932095,0.53611,0.372789,0.419582,0.152069,3.9546,-1.25651,0.636788,-13.6833,0.419582,0.152069,13.7483,0,1000,0,0,0,0,
586.414,170.127,2.86396,177.126,-0.085371,-0.995721,-0.0228271,-0.0270469,-0.133502,0.0981435,7.69524,-0.744829,0.249316,-3.86361,0.870442,0.541846,-0.403889,43.965,99.818,0.024999,-0.193403,0.143348,11.0381,-0.0167643,0.00562801,-0.0967838,-0.788358,0.665947,0.38652,0.5518,-0.0399205,3.90363,-1.23417,0.739756,-13.6328,0.5518,-0.0399205,13.6974,0,1000,0,0,0,0,
586.439,159.122,2.10826,176.47,-0.180516,-0.982918,-0.0269495,-0.023663,-0.118735,0.096877,7.68967,-0.617996,0.305743,-3.82238,0.833967,0.520397,-0.406151,43.97,99.793,0.025001,-0.172311,0.141376,11.0303,-0.0168109,0.00342869,-0.0964208,-0.617519,0.764688,0.406442,0.470137,-0.104569,3.85409,-0.978287,0.908269,-13.5909,0.470137,-0.104569,13.6478,0,1000,0,0,0,0,
586.465,148.151,1.24522,175.984,-0.273816,-0.961082,-0.0307158,-0.0200568,-0.111173,0.0943003,7.66519,-0.577387,0.150743,-3.84136,0.799986,0.505638,-0.401401,43.97,99.767,0.024999,-0.160478,0.140246,11.0089,-0.0139842,0.0066448,-0.0955674,-0.436107,0.831607,0.418343,0.356787,-0.361352,3.85412,-0.79022,0.836546,-13.6087,0.356787,-0.361352,13.6479,0,1000,0,0,0,0,
586.491,137.215,0.315156,175.684,-0.364399,-0.930478,-0.0340552,-0.0162926,-0.102942,0.0898138,7.65468,-0.536616,0.38268,-3.76156,0.767184,0.501479,-0.403887,43.97,99.755,0.025001,-0.145594,0.133647,10.9842,-0.0157277,0.00340312,-0.0949836,-0.245792,0.867437,0.436251,0.445493,-0.278053,3.78259,-0.590487,1.11965,-13.5274,0.445493,-0.278053,13.5763,0,1000,0,0,0,0,
586.516,126.311,-0.644359,175.57,-0.451418,-0.891457,-0.0370235,-0.0124404,-0.101711,0.0826392,7.63495,-0.594055,0.236956,-3.74888,0.729279,0.505271,-0.405301,43.97,99.717,0.024999,-0.141833,0.125712,10.9552,-0.0125983,0.00502538,-0.0938394,-0.0481716,0.863382,0.451294,0.333792,-0.544289,3.74907,-0.483915,0.993438,-13.5127,0.333792,-0.544289,13.5428,0,1000,0,0,0,0,
586.542,115.429,-1.59066,175.635,-0.534146,-0.84442,-0.0396028,-0.0086145,-0.104836,0.0714165,7.61367,-0.667606,0.225887,-3.69582,0.692585,0.518404,-0.399802,43.97,99.717,0.025,-0.143586,0.109654,10.9308,-0.0170622,0.00458045,-0.0937317,0.147283,0.823148,0.457157,0.280042,-0.719586,3.68234,-0.395743,0.97105,-13.4574,0.280042,-0.719586,13.4761,0,1000,0,0,0,0,
586.567,104.566,-2.49898,175.872,-0.611842,-0.789859,-0.0418172,-0.00479166,-0.108849,0.0670574,7.60015,-0.619215,0.321121,-3.7268,0.660931,0.530172,-0.406808,43.95,99.675,0.025,-0.147594,0.102418,10.904,-0.0156031,0.00487594,-0.0930921,0.322263,0.745969,0.472316,0.246912,-0.743507,3.70969,-0.192192,1.02552,-13.4858,0.246912,-0.743507,13.5034,0,1000,0,0,0,0,
586.592,93.7094,-3.34732,176.268,-0.683891,-0.728273,-0.0437097,-0.000958934,-0.11023,0.0704572,7.58814,-0.650712,0.23606,-3.68608,0.627966,0.55128,-0.404164,43.97,99.654,0.025001,-0.154538,0.10395,10.885,-0.0152069,0.00505564,-0.0925826,0.483809,0.633879,0.475105,0.051629,-0.863737,3.64933,-0.0788693,0.872427,-13.4424,0.051629,-0.863737,13.4431,0,1000,0,0,0,0,
586.617,82.8504,-4.10694,176.819,-0.749708,-0.660216,-0.045212,0.002898,-0.109771,0.0725226,7.5787,-0.626973,0.113903,-3.67151,0.607594,0.576418,-0.405395,43.965,99.616,0.024999,-0.153175,0.105895,10.8722,-0.0159131,0.00173343,-0.092159,0.620266,0.501454,0.479153,-0.199894,-0.870246,3.61784,0.0744379,0.656028,-13.4251,-0.199894,-0.870246,13.4116,0,1000,0,0,0,0,
586.643,71.9894,-4.75469,177.503,-0.808714,-0.586334,-0.0463475,0.00675896,-0.110786,0.0778554,7.56773,-0.744631,0.229004,-3.62168,0.587042,0.628121,-0.408586,43.95,99.6,0.025001,-0.152991,0.111915,10.8574,-0.0153324,0.00183154,-0.0914753,0.749568,0.333499,0.482725,-0.254911,-1.01366,3.55401,0.0671704,0.65423,-13.3725,-0.254911,-1.01366,13.3478,0,1000,0,0,0,0,
586.668,61.1343,-5.26718,178.289,-0.860377,-0.507364,-0.0471425,0.0105245,-0.120044,0.0814815,7.55017,-0.733436,0.356927,-3.63679,0.570511,0.646662,-0.403897,43.97,99.578,0.024999,-0.160313,0.116893,10.8352,-0.0190716,0.00515797,-0.0913357,0.811014,0.157288,0.473609,-0.296788,-1.05252,3.56311,0.165631,0.648064,-13.3848,-0.296788,-1.05252,13.3569,0,1000,0,0,0,0,
586.693,50.2741,-5.6408,179.156,-0.904327,-0.423931,-0.0476691,0.0142413,-0.114617,0.0970918,7.54979,-0.678208,0.153073,-3.61516,0.568956,0.689153,-0.407642,43.97,99.566,0.025001,-0.164324,0.134688,10.8268,-0.0155215,0.00196589,-0.0910899,0.860984,-0.0326717,0.47165,-0.581815,-0.856315,3.53285,0.284435,0.296642,-13.3604,-0.581815,-0.856315,13.3266,0,1000,0,0,0,0,
586.718,39.4252,-5.85918,-179.918,-0.940153,-0.336896,-0.0478714,0.0179149,-0.115252,0.106522,7.53112,-0.474043,0.410699,-3.60886,0.567466,0.722347,-0.411197,43.965,99.541,0.024999,-0.159459,0.149244,10.8056,-0.0183025,0.00720755,-0.0904451,0.862825,-0.226528,0.465944,-0.384676,-0.854657,3.54103,0.52574,0.396692,-13.3514,-0.384676,-0.854657,13.3348,0,1000,0,0,0,0,
586.744,28.5795,-5.91699,-178.961,-0.967613,-0.24694,-0.0477786,0.0215135,-0.106228,0.114122,7.52617,-0.862206,0.168763,-3.57151,0.57358,0.752955,-0.407367,43.955,99.511,0.025001,-0.154989,0.166488,10.7976,-0.0195331,0.00460674,-0.0902738,0.829043,-0.414076,0.450678,-0.964403,-0.791257,3.45997,0.147406,-0.00788367,-13.3115,-0.964403,-0.791257,13.2537,0,1000,0,0,0,0,
586.769,17.7515,-5.80017,-177.993,-0.986472,-0.154947,-0.0472826,0.0250839,-0.0926329,0.124583,7.51295,-0.427039,0.0704894,-3.56893,0.588488,0.788901,-0.407573,43.965,99.499,0.024999,-0.13663,0.173107,10.7807,-0.0140014,0.00530002,-0.0891197,0.765786,-0.597665,0.437228,-0.688096,-0.425466,3.50287,0.56271,-0.27069,-13.3066,-0.688096,-0.425466,13.2966,0,1000,0,0,0,0,
586.794,6.95045,-5.50807,-177.047,-0.996602,-0.0617628,-0.0463839,0.0286051,-0.0787777,0.115989,7.49818,-0.757846,0.241513,-3.53937,0.609722,0.823559,-0.406118,43.97,99.465,0.025,-0.116348,0.177429,10.7612,-0.0173779,0.00320104,-0.0881212,0.669905,-0.767968,0.419993,-1.03315,-0.552638,3.43322,0.182217,-0.260772,-13.2749,-1.03315,-0.552638,13.227,0,1000,0,0,0,0,
586.82,-3.81488,-5.03261,-176.163,-0.997972,0.0317654,-0.0449678,0.0319626,-0.0725807,0.111563,7.48137,-0.471817,0.132546,-3.55589,0.637328,0.847586,-0.411282,43.97,99.44,0.025,-0.104485,0.164866,10.7392,-0.013489,0.00383721,-0.0889603,0.544414,-0.911447,0.408193,-0.803353,-0.317429,3.48402,0.387316,-0.520231,-13.29,-0.803353,-0.317429,13.2778,0,1000,0,0,0,0,
586.845,-14.5336,-4.38944,-175.387,-0.990632,0.124765,-0.0430444,0.0350542,-0.0772078,0.09857,7.46271,-0.716687,0.431871,-3.51481,0.670008,0.868995,-0.41339,43.97,99.427,0.025001,-0.102117,0.150711,10.7109,-0.0187894,0.00669453,-0.0878661,0.395608,-1.03172,0.392434,-1.12767,-0.444399,3.40366,0.0328798,-0.353514,-13.2482,-1.12767,-0.444399,13.1974,0,1000,0,0,0,0,
586.87,-25.1947,-3.60576,-174.752,-0.974735,0.216356,-0.040651,0.037801,-0.0744852,0.0928027,7.43773,-0.559225,0.0662235,-3.41973,0.696428,0.882401,-0.415554,43.955,99.39,0.024999,-0.106656,0.13883,10.6732,-0.0140699,0.00328986,-0.086914,0.219731,-1.11646,0.376245,-0.859693,-0.0140993,3.35744,0.0567132,-0.827771,-13.1531,-0.859693,-0.0140993,13.1512,0,1000,0,0,0,0,
586.895,-35.8124,-2.71362,-174.272,-0.95047,0.305864,-0.0378607,0.0402584,-0.0765317,0.0881017,7.41204,-0.495252,0.305679,-3.44264,0.727976,0.885224,-0.413085,43.96,99.364,0.025001,-0.102871,0.131631,10.6483,-0.013877,0.00416688,-0.0869993,0.0377807,-1.16426,0.35678,-0.91052,-0.141758,3.36769,-0.0315788,-0.670652,-13.1766,-0.91052,-0.141758,13.1614,0,1000,0,0,0,0,
586.921,-46.3871,-1.74727,-173.979,-0.91812,0.392513,-0.0346784,0.042275,-0.0846265,0.0831335,7.3999,-0.470354,-0.0742596,-3.40296,0.768343,0.890744,-0.411773,43.965,99.339,0.024999,-0.11494,0.126247,10.6202,-0.0156484,0.00552474,-0.0862316,-0.149534,-1.18988,0.339343,-0.600614,0.219978,3.37606,-0.171734,-1.10114,-13.1381,-0.600614,0.219978,13.1698,0,1000,0,0,0,0,
586.946,-56.9271,-0.740802,-173.87,-0.878009,0.475604,-0.0311591,0.0439304,-0.0841645,0.0814206,7.38386,-0.876855,0.268993,-3.40081,0.80365,0.896209,-0.416287,43.97,99.327,0.025001,-0.116377,0.120641,10.5949,-0.0175017,-0.000721839,-0.0853833,-0.347687,-1.18047,0.328564,-1.03057,0.426909,3.34102,-0.750231,-0.776796,-13.1377,-1.03057,0.426909,13.1348,0,1000,0,0,0,0,
586.971,-67.4432,0.268936,-173.961,-0.830519,0.554489,-0.0272934,0.0451129,-0.0979329,0.0819394,7.37382,-0.616925,0.283537,-3.36964,0.831554,0.879119,-0.406478,43.955,99.289,0.024999,-0.130682,0.116709,10.5738,-0.0188174,0.00676229,-0.0851775,-0.527312,-1.12104,0.30783,-0.81844,0.311183,3.32397,-0.662896,-0.746785,-13.1089,-0.81844,0.311183,13.1177,0,1000,0,0,0,0,
586.997,-77.9687,1.2273,-174.242,-0.775954,0.628696,-0.0232815,0.045769,-0.098734,0.097547,7.37357,-0.637238,0.365248,-3.38716,0.864409,0.87394,-0.412277,43.96,99.276,0.025001,-0.138872,0.134238,10.5774,-0.0172081,0.00465496,-0.0846747,-0.709303,-1.04186,0.303929,-0.805696,0.406682,3.34632,-0.847008,-0.617096,-13.1293,-0.805696,0.406682,13.1401,0,1000,0,0,0,0,
587.022,-88.4925,2.09857,-174.689,-0.714866,0.697485,-0.0192157,0.0459452,-0.095813,0.109517,7.36544,-0.692082,0.111067,-3.36914,0.89497,0.836924,-0.404795,43.97,99.251,0.024999,-0.136764,0.153032,10.5644,-0.016412,0.00541049,-0.0847445,-0.846654,-0.928888,0.292603,-0.437253,0.55784,3.3675,-1.05072,-0.794803,-13.1143,-0.437253,0.55784,13.1612,0,1000,0,0,0,0,
587.047,-99.0247,2.86375,-175.273,-0.647745,0.760331,-0.0151464,0.0457584,-0.0846533,0.113063,7.36763,-0.303751,0.359891,-3.34372,0.914067,0.813099,-0.405047,43.95,99.222,0.025,-0.121896,0.163756,10.559,-0.014033,0.00325481,-0.0844699,-0.97911,-0.785891,0.29057,-0.604684,0.236141,3.31373,-0.793057,-0.446253,-13.092,-0.604684,0.236141,13.1075,0,1000,0,0,0,0,
587.072,-109.562,3.50563,-175.977,-0.575198,0.816689,-0.0110306,0.0452045,-0.0799533,0.112098,7.34995,-0.704371,0.00227894,-3.33077,0.934454,0.783935,-0.412208,43.97,99.188,0.025,-0.113478,0.167703,10.5498,-0.0161166,0.00230659,-0.0830669,-1.08371,-0.627867,0.298393,-0.0549309,0.550042,3.35926,-1.30322,-0.683482,-13.0821,-0.0549309,0.550042,13.153,0,1000,0,0,0,0,
587.098,-120.088,4.01555,-176.784,-0.49798,0.866027,-0.00681253,0.0443475,-0.0800215,0.110633,7.33349,-0.344936,0.433694,-3.28746,0.94483,0.744147,-0.408208,43.96,99.171,0.025001,-0.109949,0.158843,10.5242,-0.0111886,0.00487218,-0.0827855,-1.14803,-0.453723,0.298753,-0.476132,0.409869,3.27411,-1.03076,-0.114443,-13.0418,-0.476132,0.409869,13.0679,0,1000,0,0,0,0,
587.123,-130.596,4.37449,-177.673,-0.416803,0.907969,-0.00248955,0.0431459,-0.0845828,0.0977265,7.31202,-0.84641,0.185125,-3.2627,0.952603,0.71496,-0.40734,43.95,99.146,0.024999,-0.11412,0.152545,10.4953,-0.0168331,0.00278103,-0.082208,-1.19183,-0.267489,0.304212,0.14669,0.659022,3.30758,-1.59343,-0.2114,-13.0199,0.14669,0.659022,13.1013,0,1000,0,0,0,0,
587.148,-141.103,4.58046,-178.62,-0.332218,0.942279,0.00195814,0.0416851,-0.088647,0.0931617,7.30805,-0.417268,0.00199595,-3.25201,0.947809,0.67775,-0.403927,43.95,99.121,0.025001,-0.120468,0.136783,10.4858,-0.0147269,0.0012199,-0.0818771,-1.19094,-0.0777911,0.310558,0.0712209,0.16066,3.27395,-1.19939,-0.233121,-13.0116,0.0712209,0.16066,13.0677,0,1000,0,0,0,0,
587.174,-151.582,4.61163,-179.594,-0.24512,0.968651,0.00644733,0.0398702,-0.0967573,0.0903351,7.28121,-0.86005,0.379712,-3.24322,0.940459,0.644496,-0.404924,43.97,99.1,0.024999,-0.128215,0.134948,10.4551,-0.0182757,0.00413982,-0.081845,-1.16084,0.107909,0.323442,0.333198,0.638121,3.29911,-1.64748,0.310612,-13.005,0.333198,0.638121,13.0929,0,1000,0,0,0,0,
587.199,-162.031,4.46576,179.429,-0.156242,0.986937,0.0109985,0.0377057,-0.101328,0.0929217,7.2678,-0.741174,-0.0633671,-3.20621,0.925505,0.615192,-0.404855,43.95,99.071,0.025,-0.14278,0.133744,10.4259,-0.0179122,0.00107908,-0.0812203,-1.09666,0.286787,0.33765,0.494868,0.0603245,3.2534,-1.50375,0.0338582,-12.9697,0.494868,0.0603245,13.0471,0,1000,0,0,0,0,
587.224,-172.456,4.13287,178.499,-0.0662056,0.997068,0.0154351,0.0351159,-0.103151,0.106047,7.25644,-0.652589,0.228491,-3.25479,0.910536,0.588552,-0.403429,43.955,99.045,0.025,-0.142717,0.147229,10.411,-0.0186245,0.00298948,-0.081196,-1.00607,0.449594,0.351998,0.393578,0.196513,3.29821,-1.35842,0.484402,-13.0197,0.393578,0.196513,13.092,0,1000,0,0,0,0,
587.249,177.153,3.618,177.645,0.0241777,0.998998,0.0197504,0.0320617,-0.101675,0.120645,7.2408,-0.675265,0.220682,-3.22517,0.885484,0.557848,-0.407924,43.97,99.012,0.025,-0.14549,0.167622,10.3886,-0.0155549,0.00296916,-0.0805167,-0.882908,0.585192,0.373768,0.473787,0.0645076,3.26769,-1.29329,0.622338,-12.9911,0.473787,0.0645076,13.0614,0,1000,0,0,0,0,
587.275,166.79,2.94119,176.909,0.114254,0.992754,0.0238319,0.0285855,-0.096979,0.131226,7.23345,-0.517376,0.362379,-3.21463,0.855354,0.532465,-0.405645,43.97,98.987,0.025,-0.137188,0.185976,10.3762,-0.0177416,0.00543709,-0.0805917,-0.736792,0.696618,0.389305,0.384777,0.10332,3.25178,-1.0199,0.889777,-12.9812,0.384777,0.10332,13.0455,0,1000,0,0,0,0,
587.3,156.458,2.12786,176.316,0.203275,0.978418,0.0276794,0.024725,-0.089134,0.143563,7.22605,-0.420196,0.32011,-3.18033,0.825154,0.517715,-0.402171,43.96,98.957,0.025,-0.131067,0.203028,10.3622,-0.0100038,0.00887991,-0.0797548,-0.574712,0.785752,0.403671,0.322189,-0.0148447,3.20773,-0.783835,0.949025,-12.9471,0.322189,-0.0148447,13.0015,0,1000,0,0,0,0,
587.325,146.158,1.22915,175.898,0.290479,0.956152,0.031117,0.0206708,-0.0719051,0.125277,7.20778,-0.766935,0.21493,-3.12907,0.793576,0.520225,-0.400512,43.97,98.949,0.025,-0.110844,0.198492,10.3427,-0.0187643,0.000196721,-0.0792103,-0.393741,0.854243,0.419574,0.575714,-0.397383,3.15216,-0.977022,0.91532,-12.8955,0.575714,-0.397383,12.9459,0,1000,0,0,0,0,
587.351,135.889,0.294812,175.664,0.375144,0.92619,0.0340996,0.0165894,-0.0687278,0.119955,7.19171,-0.399485,0.297094,-3.18563,0.759626,0.500144,-0.397064,43.97,98.924,0.025001,-0.0935375,0.177099,10.3196,-0.0107646,0.00567471,-0.0787695,-0.22077,0.866801,0.42983,0.313544,-0.226848,3.20099,-0.449878,1.03762,-12.9512,0.313544,-0.226848,12.9947,0,1000,0,0,0,0,
587.376,125.654,-0.648569,175.598,0.456531,0.88886,0.0367456,0.0125057,-0.0669892,0.102283,7.16689,-0.612699,0.162264,-3.1293,0.730543,0.50664,-0.398223,43.965,98.882,0.024999,-0.0927159,0.161671,10.2876,-0.0156394,0.00279732,-0.0785043,-0.0372926,0.866186,0.444173,0.314091,-0.572317,3.12538,-0.50184,0.913855,-12.8935,0.314091,-0.572317,12.9191,0,1000,0,0,0,0,
587.401,115.44,-1.5661,175.697,0.534066,0.844498,0.0390321,0.00850279,-0.0713181,0.0904049,7.1483,-0.578194,0.219082,-3.11093,0.692626,0.511748,-0.40249,43.96,98.861,0.025001,-0.095461,0.140722,10.2622,-0.0120307,0.00262047,-0.078202,0.1413,0.820615,0.45852,0.271377,-0.605332,3.10163,-0.310529,0.953683,-12.8734,0.271377,-0.605332,12.8954,0,1000,0,0,0,0,
587.426,105.243,-2.43562,175.942,0.607157,0.793509,0.0410259,0.00461331,-0.0838098,0.0838119,7.13314,-0.453374,0.118144,-3.08971,0.659675,0.530181,-0.40403,43.965,98.835,0.024999,-0.108078,0.125225,10.2368,-0.0131925,0.00294985,-0.0777127,0.314296,0.749354,0.468176,0.0563413,-0.590246,3.06827,-0.0371701,0.810667,-12.8501,0.0563413,-0.590246,12.862,0,1000,0,0,0,0,
587.452,95.0677,-3.24039,176.32,0.675206,0.736388,0.0427568,0.00082426,-0.0920509,0.0771398,7.11196,-0.576989,0.056195,-3.10008,0.630509,0.548631,-0.405434,43.97,98.81,0.025,-0.122652,0.118248,10.2042,-0.0126256,-0.000543741,-0.0775935,0.466028,0.64834,0.474749,-0.0759964,-0.760829,3.05972,-0.0233934,0.683821,-12.858,-0.0759964,-0.760829,12.8535,0,1000,0,0,0,0,
587.477,84.9087,-3.95697,176.813,0.737739,0.673631,0.0442207,-0.00279129,-0.108715,0.0749253,7.08567,-0.503663,0.190852,-3.07985,0.612692,0.571165,-0.398047,43.97,98.772,0.025,-0.141718,0.109416,10.1738,-0.0144629,0.00284999,-0.077318,0.597606,0.530675,0.47044,-0.0442182,-0.714292,3.04359,0.172176,0.733997,-12.8351,-0.0442182,-0.714292,12.8373,0,1000,0,0,0,0,
587.502,74.7706,-4.58783,177.401,0.794281,0.605808,0.0455528,-0.00629232,-0.121638,0.0846459,7.05955,-0.68099,0.100477,-3.03714,0.59229,0.600281,-0.400771,43.97,98.747,0.025001,-0.16503,0.121422,10.139,-0.013827,0.00196788,-0.0766944,0.707174,0.38391,0.473582,-0.278182,-0.879673,2.97436,0.102385,0.543122,-12.7895,-0.278182,-0.879673,12.7681,0,1000,0,0,0,0,
587.528,64.6468,-5.11355,178.078,0.844484,0.533458,0.0466487,-0.00969315,-0.129168,0.0913167,7.04885,-0.705722,0.206328,-3.07902,0.574407,0.630745,-0.402023,43.97,98.722,0.024999,-0.176833,0.129335,10.1105,-0.0202719,0.00117354,-0.0768094,0.786331,0.218792,0.47246,-0.325646,-0.92772,3.00903,0.167193,0.533427,-12.8283,-0.325646,-0.92772,12.8028,0,1000,0,0,0,0,
587.553,54.526,-5.53355,178.831,0.888056,0.45708,0.0475748,-0.0130507,-0.131041,0.111348,7.02868,-0.603923,0.220113,-3.03356,0.566577,0.667891,-0.405881,43.97,98.697,0.025,-0.184836,0.1502,10.0949,-0.0149647,0.00345621,-0.0766513,0.840858,0.0436089,0.472105,-0.390015,-0.819844,2.96503,0.340474,0.419038,-12.7796,-0.390015,-0.819844,12.7588,0,1000,0,0,0,0,
587.578,44.4142,-5.84418,179.653,0.924674,0.37732,0.0483396,-0.016467,-0.121978,0.128825,7.02644,-0.579265,0.0215805,-3.05978,0.568852,0.705108,-0.405146,43.97,98.672,0.025,-0.178439,0.179883,10.0753,-0.0184904,0.00246263,-0.0761616,0.866178,-0.135034,0.465204,-0.632036,-0.623507,2.98497,0.417967,0.0805952,-12.8024,-0.632036,-0.623507,12.7787,0,1000,0,0,0,0,
587.603,34.3002,-6.02603,-179.459,0.954131,0.294702,0.0488336,-0.0200083,-0.105251,0.14418,7.02311,-0.825688,0.265653,-3.01622,0.572415,0.738334,-0.40711,43.97,98.646,0.025001,-0.155775,0.201683,10.0696,-0.0151928,-0.000773802,-0.0752878,0.853779,-0.315967,0.457996,-0.773919,-0.884002,2.91024,0.202462,0.173609,-12.7554,-0.773919,-0.884002,12.704,0,1000,0,0,0,0,
587.629,24.1942,-6.05901,-178.539,0.976207,0.209918,0.0490051,-0.0235198,-0.100156,0.148439,7.00972,-0.679805,0.135996,-2.96074,0.584851,0.766295,-0.407239,43.95,98.605,0.024999,-0.14332,0.211677,10.0578,-0.0189608,0.00580879,-0.0749859,0.811385,-0.486641,0.447142,-0.814619,-0.597781,2.86804,0.353952,-0.11224,-12.6966,-0.814619,-0.597781,12.6618,0,1000,0,0,0,0,
587.654,14.1103,-5.94402,-177.609,0.990745,0.123706,0.0488855,-0.0270422,-0.0813078,0.155378,6.99673,-0.672684,0.196142,-2.93129,0.601029,0.799561,-0.412994,43.97,98.596,0.025001,-0.122789,0.225579,10.0369,-0.0160937,0.00137948,-0.0739614,0.740624,-0.655307,0.439483,-0.864614,-0.545487,2.83519,0.341524,-0.210189,-12.6639,-0.864614,-0.545487,12.6289,0,1000,0,0,0,0,
587.679,4.05465,-5.67115,-176.697,0.997685,0.0367429,0.0484001,-0.0305164,-0.0717663,0.157753,6.97683,-0.446892,0.251393,-2.95991,0.618522,0.827563,-0.410122,43.97,98.571,0.024999,-0.103719,0.22826,10.0153,-0.012779,0.00420417,-0.073028,0.638384,-0.806699,0.42111,-0.703637,-0.472451,2.88196,0.520914,-0.310129,-12.6895,-0.703637,-0.472451,12.6757,0,1000,0,0,0,0,
587.705,-5.95264,-5.23825,-175.837,0.997036,-0.0501775,0.0474884,-0.0338588,-0.0626059,0.146704,6.94887,-0.646884,0.223029,-2.93797,0.643664,0.843631,-0.409561,43.96,98.542,0.025001,-0.0901864,0.220885,9.97908,-0.0171155,0.00593002,-0.0734042,0.515646,-0.929622,0.40456,-0.950503,-0.33895,2.8428,0.247259,-0.484888,-12.6651,-0.950503,-0.33895,12.6366,0,1000,0,0,0,0,
587.73,-15.9002,-4.64804,-175.057,0.988896,-0.136336,0.0460831,-0.0370703,-0.0489998,0.134868,6.92705,-0.607526,0.0773237,-2.87279,0.672545,0.8677,-0.40762,43.95,98.504,0.024999,-0.0747482,0.203042,9.93619,-0.0153091,0.000152051,-0.0718728,0.372408,-1.04147,0.384747,-0.893819,-0.082872,2.79683,0.186107,-0.763792,-12.598,-0.893819,-0.082872,12.5906,0,1000,0,0,0,0,
587.755,-25.8068,-3.91739,-174.383,0.973382,-0.221277,0.044211,-0.0401088,-0.0475144,0.12542,6.90376,-0.362155,0.00208973,-2.85067,0.703932,0.893081,-0.411266,43.95,98.491,0.025001,-0.0638808,0.186578,9.91428,-0.0138075,0.0013387,-0.071647,0.208001,-1.13255,0.369218,-0.622121,-0.0113987,2.80541,0.306935,-0.954251,-12.5746,-0.622121,-0.0113987,12.5992,0,1000,0,0,0,0,
587.78,-35.6613,-3.07792,-173.849,0.950693,-0.304282,0.0419516,-0.0428423,-0.0498621,0.118387,6.87871,-0.569181,0.08877,-2.82662,0.734243,0.890551,-0.415794,43.97,98.458,0.024999,-0.0649406,0.178557,9.88049,-0.0101468,-4.24E-05,-0.0705776,0.0396554,-1.17307,0.356948,-0.811984,0.101252,2.76623,-0.0433164,-0.959063,-12.5499,-0.811984,0.101252,12.56,0,1000,0,0,0,0,
587.806,-45.466,-2.14652,-173.484,0.921075,-0.384763,0.0392061,-0.0451816,-0.0653025,0.105034,6.85642,-0.481226,0.216899,-2.8742,0.765802,0.892048,-0.413298,43.97,98.42,0.025,-0.0787138,0.160221,9.84753,-0.0144604,0.00403873,-0.0713786,-0.13663,-1.19172,0.337864,-0.797746,0.0384928,2.81101,-0.1144,-0.893725,-12.5978,-0.797746,0.0384928,12.6048,0,1000,0,0,0,0,
587.831,-55.2272,-1.16301,-173.305,0.884811,-0.462167,0.0360401,-0.0470397,-0.0770839,0.101168,6.83594,-0.604559,0.122222,-2.7805,0.796134,0.888229,-0.409326,43.97,98.395,0.025001,-0.0998382,0.150964,9.81554,-0.0130468,0.00240597,-0.0705733,-0.313378,-1.17911,0.319082,-0.7425,0.288198,2.73445,-0.405776,-1.01929,-12.5055,-0.7425,0.288198,12.5282,0,1000,0,0,0,0,
587.856,-64.9587,-0.162561,-173.311,0.842192,-0.536011,0.0325204,-0.0484503,-0.0877242,0.101079,6.81716,-0.358528,0.107564,-2.7757,0.82399,0.876403,-0.410928,43.97,98.369,0.025,-0.115012,0.145862,9.7912,-0.0115465,0.00205715,-0.070395,-0.483579,-1.13444,0.308391,-0.544743,0.149821,2.74325,-0.330741,-1.03313,-12.5028,-0.544743,0.149821,12.537,0,1000,0,0,0,0,
587.881,-74.6674,0.817535,-173.498,0.793572,-0.605787,0.0287274,-0.049409,-0.0951061,0.100156,6.81108,-0.549683,0.2524,-2.80237,0.855642,0.861906,-0.419404,43.965,98.328,0.025,-0.126955,0.147002,9.76697,-0.0133091,0.0027939,-0.0699769,-0.644252,-1.06849,0.306866,-0.682821,0.341924,2.76333,-0.689422,-0.856493,-12.5321,-0.682821,0.341924,12.5571,0,1000,0,0,0,0,
587.907,-84.3692,1.74635,-173.86,0.739287,-0.671085,0.0246853,-0.0498997,-0.104309,0.103943,6.79499,-0.500224,0.0739967,-2.76651,0.883517,0.848794,-0.41109,43.96,98.319,0.025,-0.140017,0.150134,9.75278,-0.0123855,0.00212977,-0.0691607,-0.796013,-0.975606,0.29087,-0.408558,0.378145,2.7567,-0.798686,-0.973075,-12.4995,-0.408558,0.378145,12.5504,0,1000,0,0,0,0,
587.932,-94.0643,2.59718,-174.376,0.679779,-0.731425,0.0204628,-0.0499944,-0.103911,0.105401,6.78668,-0.492844,0.0651926,-2.7354,0.903877,0.824977,-0.411298,43.97,98.306,0.025,-0.143541,0.151774,9.73434,-0.0124819,-0.000150209,-0.0681066,-0.924201,-0.854479,0.287171,-0.305951,0.391942,2.73538,-0.936636,-0.893657,-12.472,-0.305951,0.391942,12.5291,0,1000,0,0,0,0,
587.957,-103.755,3.34516,-175.033,0.615506,-0.7864,0.0160723,-0.0496796,-0.110049,0.104813,6.76758,-0.508264,0.011724,-2.75845,0.924267,0.797182,-0.410012,43.97,98.269,0.025,-0.149651,0.153401,9.71568,-0.0146632,0.00136118,-0.0680488,-1.02999,-0.718192,0.284941,-0.160797,0.396714,2.77205,-1.07974,-0.834797,-12.4988,-0.160797,0.396714,12.5658,0,1000,0,0,0,0,
587.983,-113.435,3.96528,-175.811,0.547015,-0.835611,0.0115605,-0.0489459,-0.111085,0.111293,6.75173,-0.557492,0.174739,-2.72236,0.934574,0.768029,-0.404819,43.97,98.231,0.024999,-0.15552,0.157555,9.6891,-0.0150705,-0.000159483,-0.0681279,-1.11028,-0.561088,0.282179,-0.195475,0.487219,2.73441,-1.23475,-0.538916,-12.4666,-0.195475,0.487219,12.5282,0,1000,0,0,0,0,
588.008,-123.109,4.43623,-176.689,0.474783,-0.878778,0.00695166,-0.0477655,-0.118473,0.115924,6.73463,-0.635319,0.13068,-2.69097,0.942375,0.734857,-0.403869,43.97,98.206,0.025,-0.163861,0.165295,9.66827,-0.0153741,0.00403837,-0.067554,-1.16251,-0.396898,0.286786,-0.00663833,0.513146,2.72005,-1.39286,-0.43319,-12.4391,-0.00663833,0.513146,12.5138,0,1000,0,0,0,0,
588.033,-132.767,4.74303,-177.631,0.399399,-0.915611,0.0023524,-0.0461802,-0.11418,0.122356,6.71996,-0.445174,0.131552,-2.71376,0.947617,0.705641,-0.405914,43.97,98.18,0.025,-0.162627,0.174472,9.64066,-0.0146836,0.00153011,-0.067563,-1.19228,-0.225999,0.296752,-0.0295302,0.326855,2.73354,-1.25499,-0.271915,-12.4656,-0.0295302,0.326855,12.5273,0,1000,0,0,0,0,
588.058,-142.406,4.87248,-178.6,0.321412,-0.945906,-0.002138,-0.0441714,-0.109486,0.133609,6.69199,-0.564439,0.262994,-2.69121,0.942789,0.672402,-0.405406,43.97,98.168,0.025,-0.155057,0.19002,9.61375,-0.0126486,0.00525297,-0.0669604,-1.18662,-0.0527668,0.307369,0.0644641,0.464454,2.72222,-1.3963,0.0245188,-12.4467,0.0644641,0.464454,12.516,0,1000,0,0,0,0,
588.084,-152.012,4.83705,-179.563,0.241447,-0.969489,-0.00651069,-0.0418665,-0.0990479,0.130197,6.67462,-0.566863,0.102188,-2.6276,0.932917,0.639146,-0.403666,43.955,98.13,0.025001,-0.144801,0.191984,9.58026,-0.0143234,0.00264971,-0.0664392,-1.15195,0.11507,0.318698,0.245845,0.269045,2.66519,-1.39269,0.0278239,-12.3862,0.245845,0.269045,12.4589,0,1000,0,0,0,0,
588.109,-161.591,4.65174,179.512,0.159997,-0.986274,-0.0106934,-0.0393791,-0.0873485,0.122969,6.66172,-0.443078,0.126872,-2.65487,0.928036,0.613873,-0.404736,43.95,98.101,0.025,-0.126646,0.183781,9.55628,-0.0139268,0.00223851,-0.0660179,-1.10195,0.276558,0.333339,0.181734,0.170357,2.68304,-1.23734,0.210042,-12.416,0.181734,0.170357,12.4768,0,1000,0,0,0,0,
588.134,-171.142,4.32309,178.648,0.0776084,-0.996201,-0.0146643,-0.0366916,-0.0774113,0.117042,6.64071,-0.541375,0.0668665,-2.59734,0.906775,0.584552,-0.402066,43.955,98.063,0.024999,-0.110514,0.178188,9.53587,-0.0133091,0.000581952,-0.065187,-1.0129,0.423986,0.346207,0.339019,0.0584814,2.63161,-1.27963,0.297236,-12.3605,0.339019,0.0584814,12.4254,0,1000,0,0,0,0,
588.16,179.349,3.87033,177.855,-0.00504354,-0.999242,-0.0185141,-0.0338683,-0.0791148,0.113437,6.61883,-0.362204,0.304261,-2.55815,0.88551,0.553862,-0.407842,43.97,98.029,0.025,-0.108361,0.16533,9.5043,-0.0121958,0.00465075,-0.0648507,-0.906227,0.548539,0.367538,0.190413,0.206154,2.58633,-1.02327,0.669977,-12.3227,0.190413,0.206154,12.3801,0,1000,0,0,0,0,
588.185,169.89,3.3029,177.146,-0.0873317,-0.995451,-0.0222597,-0.0308918,-0.0797253,0.104687,6.59104,-0.320426,0.0581854,-2.5644,0.860334,0.543124,-0.404273,43.97,98.017,0.025,-0.112252,0.157096,9.46638,-0.00918823,0.00379512,-0.0641067,-0.778319,0.669335,0.380533,0.157275,-0.0987225,2.57832,-0.884689,0.545058,-12.3298,0.157275,-0.0987225,12.3721,0,1000,0,0,0,0,
588.21,160.471,2.64321,176.546,-0.168791,-0.984922,-0.0257826,-0.0278297,-0.0771613,0.0908216,6.57298,-0.57573,0.185451,-2.51368,0.835207,0.525752,-0.399157,43.97,97.979,0.025001,-0.106023,0.142803,9.43862,-0.0141046,0.00176095,-0.0641262,-0.637625,0.757472,0.391132,0.443749,-0.121663,2.54416,-1.02738,0.774863,-12.2792,0.443749,-0.121663,12.3379,0,1000,0,0,0,0,
588.235,151.09,1.91359,176.058,-0.248883,-0.967779,-0.0291341,-0.0247444,-0.0799151,0.0829559,6.55918,-0.358742,0.00678672,-2.54567,0.810053,0.509649,-0.406779,43.965,97.966,0.024999,-0.110097,0.125028,9.41166,-0.0103949,-0.000496778,-0.0637828,-0.489311,0.819111,0.413557,0.158279,-0.279596,2.55068,-0.685776,0.679692,-12.3108,0.158279,-0.279596,12.3444,0,1000,0,0,0,0,
588.261,141.746,1.12089,175.689,-0.327068,-0.944202,-0.032334,-0.0215594,-0.0906861,0.0792245,6.53252,-0.380168,0.158817,-2.5135,0.774756,0.50286,-0.400824,43.97,97.929,0.025001,-0.117345,0.119849,9.38336,-0.00965079,0.00204534,-0.0634344,-0.323192,0.854999,0.422254,0.240854,-0.228855,2.52528,-0.571753,0.894937,-12.2777,0.240854,-0.228855,12.319,0,1000,0,0,0,0,
588.286,132.446,0.289137,175.435,-0.402768,-0.914432,-0.0354308,-0.018365,-0.101648,0.0745398,6.50757,-0.453892,0.0892588,-2.58158,0.746957,0.505363,-0.404681,43.97,97.903,0.024999,-0.134938,0.110837,9.34643,-0.0110537,0.00158828,-0.0631735,-0.157652,0.871083,0.439846,0.211567,-0.403946,2.58275,-0.503315,0.86876,-12.3441,0.211567,-0.403946,12.3765,0,1000,0,0,0,0,
588.311,123.18,-0.566658,175.302,-0.475548,-0.87872,-0.038402,-0.0151551,-0.112288,0.0716826,6.48815,-0.385865,0.0116521,-2.52021,0.714085,0.513194,-0.400352,43.96,97.874,0.025001,-0.151298,0.105916,9.31423,-0.0119592,0.00118898,-0.062731,0.012236,0.855945,0.448082,0.061717,-0.450348,2.50875,-0.289006,0.813792,-12.2806,0.061717,-0.450348,12.3025,0,1000,0,0,0,0,
588.336,113.937,-1.43498,175.294,-0.545029,-0.837318,-0.0412353,-0.011887,-0.120102,0.0765385,6.47714,-0.420466,-0.103264,-2.50846,0.687498,0.520969,-0.414159,43.9775,97.844,0.024999,-0.165007,0.108879,9.29214,-0.0103737,-0.00211887,-0.062759,0.169279,0.814621,0.472576,-0.0862942,-0.56646,2.48022,-0.175206,0.699937,-12.2661,-0.0862942,-0.56646,12.274,0,1000,0,0,0,0,
588.362,104.698,-2.30223,175.419,-0.610875,-0.790463,-0.0439005,-0.00851699,-0.126308,0.0816874,6.46812,-0.48161,-0.0845288,-2.49534,0.658355,0.539493,-0.400029,43.95,97.811,0.025001,-0.173161,0.117792,9.28408,-0.0109261,-0.00365246,-0.0621225,0.326864,0.747467,0.467932,-0.126911,-0.63381,2.45926,-0.0881884,0.697101,-12.2499,-0.126911,-0.63381,12.253,0,1000,0,0,0,0,
588.387,95.4779,-3.14788,175.666,-0.672544,-0.738582,-0.0464354,-0.00510874,-0.139499,0.0914264,6.45302,-0.486947,0.103992,-2.50891,0.633002,0.55261,-0.409665,43.97,97.79,0.024999,-0.188191,0.128163,9.25757,-0.0133935,0.000641222,-0.0623051,0.459716,0.654195,0.484339,-0.0259623,-0.629376,2.47907,0.0508585,0.843071,-12.2599,-0.0259623,-0.629376,12.2728,0,1000,0,0,0,0,
588.412,77.0623,-4.73839,176.512,-0.782023,-0.621135,-0.0512658,0.00195151,-0.147412,0.128539,6.42792,-0.388721,0.158799,-2.45666,0.597355,0.597637,-0.403364,43.955,97.723,0.025001,-0.210523,0.17583,9.22131,-0.0112611,1.55E-05,-0.0605818,0.682635,0.416795,0.486823,-0.123457,-0.577778,2.42125,0.420304,0.75263,-12.1989,-0.123457,-0.577778,12.215,0,1000,0,0,0,0,
588.438,67.8593,-5.44445,177.12,-0.829192,-0.556379,-0.0534062,0.00567302,-0.147802,0.138439,6.40926,-0.625633,0.25413,-2.40965,0.586981,0.637426,-0.407365,43.97,97.702,0.025,-0.206397,0.196736,9.20175,-0.0140711,0.00480522,-0.0605106,0.775249,0.270458,0.492592,-0.198295,-0.839535,2.3491,0.303604,0.744014,-12.1469,-0.198295,-0.839535,12.1429,0,1000,0,0,0,0,
588.463,58.6629,-6.05648,177.844,-0.870916,-0.488224,-0.0552504,0.00949556,-0.132319,0.1467,6.39699,-0.547285,0.0335052,-2.37216,0.580441,0.670599,-0.409684,43.97,97.677,0.025,-0.195201,0.210562,9.17821,-0.0132568,0.000574301,-0.0598006,0.835542,0.113337,0.493437,-0.460805,-0.649576,2.30076,0.486042,0.399885,-12.1043,-0.460805,-0.649576,12.0945,0,1000,0,0,0,0,
588.488,49.4505,-6.55115,178.684,-0.907055,-0.416961,-0.0566928,0.0134825,-0.115514,0.150314,6.39499,-0.412536,0.337503,-2.36273,0.571464,0.690463,-0.414644,43.97,97.652,0.025,-0.17001,0.218344,9.17754,-0.0125977,0.00458618,-0.0593422,0.854433,-0.0484859,0.492781,-0.227068,-0.700936,2.30732,0.704835,0.560982,-12.09,-0.227068,-0.700936,12.1011,0,1000,0,0,0,0,
588.513,40.2433,-6.90462,179.612,-0.937325,-0.343197,-0.0577049,0.0175415,-0.100277,0.147315,6.38077,-0.545983,0.104681,-2.35184,0.580078,0.72372,-0.415017,43.97,97.626,0.024999,-0.149229,0.21906,9.15806,-0.0120513,0.00267627,-0.0588148,0.866757,-0.210842,0.486599,-0.572266,-0.600613,2.26979,0.63139,0.170535,-12.0743,-0.572266,-0.600613,12.0635,0,1000,0,0,0,0,
588.539,31.0517,-7.09118,-179.394,-0.961564,-0.267473,-0.0581718,0.0216414,-0.0838927,0.135905,6.36174,-0.364712,0.275473,-2.31396,0.582441,0.749001,-0.409799,43.965,97.589,0.025001,-0.124243,0.205862,9.13275,-0.0135723,0.00368156,-0.0582283,0.841221,-0.372806,0.470678,-0.399745,-0.590796,2.24822,0.844314,0.172635,-12.0323,-0.399745,-0.590796,12.042,0,1000,0,0,0,0,
588.564,21.8858,-7.10457,-178.372,-0.979664,-0.190312,-0.0581343,0.0256853,-0.0751452,0.127155,6.3385,-0.47117,0.244121,-2.35066,0.596146,0.776986,-0.407062,43.97,97.563,0.024999,-0.109505,0.193127,9.10365,-0.00933733,0.00565686,-0.0577273,0.798593,-0.528659,0.455595,-0.586867,-0.570713,2.26651,0.740127,-0.0320501,-12.0653,-0.586867,-0.570713,12.0603,0,1000,0,0,0,0,
588.589,12.7609,-6.9335,-177.354,-0.991568,-0.112285,-0.0575171,0.0296257,-0.0673344,0.107722,6.31537,-0.460105,0.199404,-2.2847,0.609859,0.802283,-0.409917,43.97,97.526,0.025,-0.0960094,0.169551,9.06663,-0.0114255,0.00500921,-0.0576554,0.727799,-0.6763,0.443333,-0.645779,-0.458653,2.20089,0.722169,-0.249494,-11.9965,-0.645779,-0.458653,11.9946,0,1000,0,0,0,0,
588.615,3.68272,-6.57928,-176.374,-0.997279,-0.0338776,-0.0563104,0.0334096,-0.0636442,0.088821,6.28857,-0.535981,0.575458,-2.27692,0.629875,0.826218,-0.426647,43.97,97.513,0.025,-0.087928,0.14267,9.03103,-0.011821,0.00871018,-0.0572567,0.636419,-0.812344,0.443254,-0.740879,-0.767468,2.15984,0.586167,-0.0398043,-11.9867,-0.740879,-0.767468,11.9536,0,1000,0,0,0,0,
588.64,-5.32535,-6.05376,-175.467,-0.996844,0.0442687,-0.0545407,0.036995,-0.05913,0.0736298,6.24604,-0.13342,0.268331,-2.25589,0.652452,0.850296,-0.415038,43.97,97.488,0.025001,-0.0832787,0.116331,8.97808,-0.008447,0.00779287,-0.0568005,0.52791,-0.93346,0.413421,-0.40739,-0.409724,2.20114,0.899445,-0.501314,-11.9646,-0.40739,-0.409724,11.9949,0,1000,0,0,0,0,
588.665,-14.2828,-5.37098,-174.648,-0.990344,0.121876,-0.0522367,0.0404531,-0.0483605,0.0528097,6.23066,-0.523862,0.25788,-2.24443,0.671336,0.859713,-0.410327,43.97,97.45,0.024999,-0.0713633,0.0915732,8.94866,-0.0102778,0.00343129,-0.0566376,0.397328,-1.02391,0.389753,-0.820952,-0.271958,2.15185,0.392872,-0.651546,-11.9527,-0.820952,-0.271958,11.9456,0,1000,0,0,0,0,
588.69,-23.176,-4.53996,-173.948,-0.977904,0.198387,-0.0493427,0.0437288,-0.0498004,0.0309853,6.1975,-0.266625,0.123121,-2.26746,0.700262,0.874431,-0.418079,43.97,97.412,0.025001,-0.0661899,0.0575692,8.90876,-0.00885439,0.00513725,-0.0562894,0.258619,-1.10456,0.377968,-0.549742,-0.157889,2.2137,0.508592,-0.906232,-11.9761,-0.549742,-0.157889,12.0074,0,1000,0,0,0,0,
588.716,-32.0147,-3.58737,-173.391,-0.959656,0.273433,-0.0459249,0.046764,-0.0522135,0.00926585,6.18732,-0.455333,0.137818,-2.25482,0.724219,0.879885,-0.413106,43.97,97.387,0.024999,-0.0675998,0.0297959,8.8778,-0.01326,0.00119561,-0.0562403,0.107907,-1.15435,0.353799,-0.713473,-0.0214428,2.19112,0.157467,-0.987184,-11.9644,-0.713473,-0.0214428,11.9849,0,1000,0,0,0,0,
588.741,-40.8163,-2.54357,-173.001,-0.935727,0.346699,-0.0420434,0.0494711,-0.0615616,0.00341144,6.17533,-0.450551,0.253577,-2.21794,0.751948,0.886661,-0.413677,43.97,97.362,0.025,-0.0784013,0.00947672,8.8609,-0.0098351,0.00331402,-0.0560761,-0.0498242,-1.18642,0.335622,-0.754715,-0.0378543,2.14838,-0.0159135,-0.938671,-11.9291,-0.754715,-0.0378543,11.9421,0,1000,0,0,0,0,
588.766,-49.5874,-1.45056,-172.797,-0.906291,0.417769,-0.03781,0.0517266,-0.0786888,-0.00138864,6.16421,-0.593501,0.0921598,-2.21139,0.775896,0.892088,-0.414352,43.97,97.337,0.025,-0.0992145,0.00370744,8.84385,-0.0149395,0.00439741,-0.0552684,-0.215498,-1.19225,0.318768,-0.701193,0.254772,2.16666,-0.34558,-1.13549,-11.9247,-0.701193,0.254772,11.9604,0,1000,0,0,0,0,
588.792,-58.34,-0.343711,-172.776,-0.871531,0.486268,-0.0333182,0.0535474,-0.0843949,0.00547164,6.15177,-0.458413,0.304164,-2.18902,0.805007,0.881612,-0.411698,43.96,97.295,0.025001,-0.113856,0.00542407,8.83145,-0.012396,0.00262634,-0.0553156,-0.366931,-1.16991,0.302399,-0.738455,0.0982227,2.13062,-0.399662,-0.927297,-11.9049,-0.738455,0.0982227,11.9244,0,1000,0,0,0,0,
588.817,-67.0876,0.731968,-172.935,-0.831646,0.551841,-0.0287346,0.054879,-0.0916519,0.0225183,6.15214,-0.460531,-0.0925103,-2.21546,0.830331,0.869757,-0.416213,43.97,97.274,0.024999,-0.125445,0.025411,8.82349,-0.0106011,0.0033605,-0.0552645,-0.517443,-1.12434,0.295436,-0.334734,0.327804,2.21572,-0.585645,-1.29708,-11.934,-0.334734,0.327804,12.0095,0,1000,0,0,0,0,
588.842,-75.8313,1.75095,-173.253,-0.786904,0.614074,-0.0241247,0.0557936,-0.0894799,0.0346251,6.13602,-0.253782,-0.0260747,-2.14508,0.856927,0.857942,-0.413621,43.97,97.236,0.025001,-0.124851,0.0441311,8.81101,-0.0110064,-0.00218303,-0.0541485,-0.661224,-1.0601,0.283626,-0.265393,0.127394,2.14005,-0.553031,-1.17622,-11.8665,-0.265393,0.127394,11.9338,0,1000,0,0,0,0,
588.867,-84.5777,2.6865,-173.725,-0.737587,0.672624,-0.0195008,0.0562262,-0.0989503,0.0476366,6.12833,-0.581775,0.412408,-2.15188,0.881017,0.843453,-0.412476,43.97,97.211,0.025,-0.130345,0.066145,8.79972,-0.011931,0.00615327,-0.0539206,-0.79496,-0.974426,0.276175,-0.687886,0.419868,2.11888,-1.04082,-0.656842,-11.8763,-0.687886,0.419868,11.9126,0,1000,0,0,0,0,
588.893,-93.3147,3.52281,-174.344,-0.684097,0.727074,-0.0147942,0.0561754,-0.100549,0.0585949,6.11445,-0.417327,0.234542,-2.14965,0.895064,0.82095,-0.410112,43.97,97.186,0.025,-0.141614,0.0789754,8.77414,-0.0138213,0.00615111,-0.0539723,-0.908756,-0.862377,0.271588,-0.427954,0.31178,2.13771,-1.01911,-0.728888,-11.8773,-0.427954,0.31178,11.9315,0,1000,0,0,0,0,
588.918,-102.06,4.2336,-175.076,-0.626668,0.777227,-0.0101682,0.0556898,-0.0936018,0.0721101,6.10822,-0.421709,0.230643,-2.17184,0.909043,0.807737,-0.409351,43.97,97.148,0.024999,-0.136334,0.100945,8.76426,-0.00941936,0.00523355,-0.0540455,-1.016,-0.735503,0.270473,-0.352231,0.343455,2.16931,-1.14471,-0.607741,-11.9028,-0.352231,0.343455,11.9631,0,1000,0,0,0,0,
588.943,-110.811,4.81706,-175.892,-0.565661,0.822789,-0.0056315,0.054902,-0.0838178,0.0728792,6.09667,-0.363889,0.213265,-2.12817,0.921896,0.774597,-0.40681,43.97,97.135,0.025,-0.121776,0.109028,8.75223,-0.0115373,0.00433727,-0.0534396,-1.08627,-0.601357,0.271626,-0.275386,0.303259,2.13054,-1.18631,-0.485802,-11.8623,-0.275386,0.303259,11.9243,0,1000,0,0,0,0,
588.968,-119.555,5.27078,-176.771,-0.50151,0.863472,-0.00118431,0.0538817,-0.0736482,0.0734066,6.08256,-0.533635,0.20873,-2.11749,0.935949,0.750762,-0.404417,43.97,97.11,0.025,-0.105571,0.108275,8.73161,-0.0107715,0.00451635,-0.0538289,-1.14794,-0.458647,0.273979,-0.118194,0.455863,2.14251,-1.43332,-0.340598,-11.8543,-0.118194,0.455863,11.9363,0,1000,0,0,0,0,
588.994,-128.288,5.59812,-177.698,-0.434617,0.899067,0.0032349,0.0526871,-0.0645042,0.0606514,6.06532,-0.358913,0.2485,-2.17945,0.938581,0.733476,-0.409621,43.97,97.072,0.025001,-0.0950017,0.0959182,8.71033,-0.0144422,0.00522969,-0.0534708,-1.18991,-0.297957,0.286454,-0.173307,0.322493,2.19238,-1.3143,-0.14306,-11.9186,-0.173307,0.322493,11.9861,0,1000,0,0,0,0,
589.019,-137.009,5.78921,-178.656,-0.365382,0.929413,0.00760188,0.0512763,-0.0627,0.0594106,6.05501,-0.439803,0.396904,-2.09846,0.938839,0.694944,-0.410239,43.97,97.047,0.024999,-0.0884206,0.088448,8.68982,-0.0118797,0.00974527,-0.0533832,-1.19258,-0.148772,0.297114,-0.138176,0.480961,2.12228,-1.42769,0.168315,-11.8396,-0.138176,0.480961,11.916,0,1000,0,0,0,0,
589.044,-145.729,5.8415,-179.627,-0.294093,0.954412,0.0119026,0.0496515,-0.0580271,0.0521264,6.05519,-0.57545,0.379931,-2.10787,0.93776,0.667025,-0.412533,43.97,97.009,0.025001,-0.0826053,0.0808046,8.68449,-0.0147658,0.0103166,-0.0530473,-1.18237,0.00470851,0.310614,0.0743201,0.527014,2.15298,-1.57223,0.316424,-11.8506,0.0743201,0.527014,11.9467,0,1000,0,0,0,0,
589.07,-154.444,5.75927,179.42,-0.221137,0.973935,0.0160392,0.0478756,-0.0445014,0.042571,6.04775,-0.401876,0.351351,-2.10595,0.927851,0.639089,-0.409489,43.97,96.997,0.024999,-0.0676139,0.0695457,8.68151,-0.0134586,0.00846558,-0.0528582,-1.1444,0.156547,0.320726,0.0273942,0.37891,2.13908,-1.38467,0.449957,-11.8498,0.0273942,0.37891,11.9328,0,1000,0,0,0,0,
589.095,-163.142,5.54365,178.51,-0.147023,0.987865,0.019938,0.045928,-0.0303566,0.0374509,6.04302,-0.36934,0.259726,-2.07938,0.916652,0.61377,-0.413606,43.96,96.959,0.025001,-0.0491371,0.0619887,8.668,-0.00902508,0.00860674,-0.0521386,-1.08767,0.300281,0.338868,0.099399,0.244907,2.11136,-1.31546,0.513258,-11.824,0.099399,0.244907,11.9051,0,1000,0,0,0,0,
589.12,-171.821,5.21597,177.667,-0.0721539,0.996148,0.0235305,0.0439265,-0.0133916,0.0188984,6.03501,-0.586525,0.108154,-2.05262,0.90161,0.597752,-0.413811,43.97,96.908,0.024999,-0.024149,0.0418066,8.65678,-0.0125113,0.00226073,-0.0518335,-1.01072,0.4411,0.354023,0.389719,0.0807725,2.10013,-1.47688,0.5052,-11.7977,0.389719,0.0807725,11.8939,0,1000,0,0,0,0,
589.145,179.506,4.79151,176.895,0.00316959,0.998755,0.0268888,0.0419025,-0.0107233,0.00244414,6.04109,-0.38745,0.164693,-2.02974,0.87909,0.568443,-0.406946,43.955,96.892,0.025001,-0.0104013,0.0163698,8.66056,-0.0114033,0.00247379,-0.0507677,-0.907798,0.553407,0.362181,0.216517,0.0526467,2.06093,-1.20552,0.693323,-11.7749,0.216517,0.0526467,11.8547,0,1000,0,0,0,0,
589.171,170.848,4.2697,176.19,0.0784485,0.995669,0.0301412,0.0397625,-0.0170139,-0.00211836,6.03233,-0.318775,0.252388,-2.06387,0.861559,0.547099,-0.407131,43.97,96.871,0.024999,-0.016115,0.00253799,8.65738,-0.00937718,0.0055457,-0.050936,-0.798238,0.65413,0.377211,0.179487,0.0872597,2.09405,-1.04793,0.901321,-11.8089,0.179487,0.0872597,11.8878,0,1000,0,0,0,0,
589.199,162.217,3.65518,175.554,0.153148,0.986928,0.0333745,0.0374769,-0.0325973,-0.00735624,6.01973,-0.339964,0.232002,-2.02639,0.833793,0.545631,-0.408083,43.96,96.833,0.025,-0.0346928,-0.00490444,8.64241,-0.00968429,0.0057466,-0.0505359,-0.663124,0.750756,0.395079,0.221998,0.00675311,2.05581,-0.964331,0.989602,-11.7708,0.221998,0.00675311,11.8496,0,1000,0,0,0,0,
589.224,153.621,2.95609,175.001,0.226786,0.972627,0.0365648,0.0350368,-0.0448996,-0.0087417,6.0044,-0.369764,0.17189,-1.99071,0.808671,0.52556,-0.411384,43.97,96.808,0.025,-0.0529322,-0.00802989,8.62041,-0.0108031,0.00395643,-0.0506741,-0.527855,0.806193,0.413305,0.237518,-0.120281,2.01452,-0.874833,1.02414,-11.7342,0.237518,-0.120281,11.8083,0,1000,0,0,0,0,
589.249,145.06,2.18283,174.544,0.298947,0.952893,0.039678,0.0324337,-0.0544678,-0.00535445,5.98884,-0.380263,0.175022,-1.98526,0.777159,0.518779,-0.408122,43.95,96.778,0.025,-0.0686397,-0.00769157,8.59718,-0.0110724,0.00310831,-0.0499748,-0.377296,0.846243,0.425667,0.24095,-0.186062,2.00595,-0.753291,1.10552,-11.7276,0.24095,-0.186062,11.7997,0,1000,0,0,0,0,
589.275,136.541,1.34337,174.194,0.369173,0.927906,0.0427062,0.0296238,-0.065284,0.00206986,5.9658,-0.222303,0.143193,-1.96471,0.75696,0.517327,-0.413043,43.97,96.745,0.025,-0.0833277,0.00136604,8.56634,-0.00720126,0.00211755,-0.0499744,-0.231912,0.871248,0.445381,0.089096,-0.161965,1.97379,-0.451909,1.13361,-11.7055,0.089096,-0.161965,11.7675,0,1000,0,0,0,0,
589.3,128.057,0.45536,173.957,0.437121,0.897848,0.0456506,0.026651,-0.0791383,0.00415985,5.94572,-0.64079,0.311522,-1.99748,0.722777,0.533137,-0.406098,43.96,96.715,0.025001,-0.0999792,0.00875865,8.53903,-0.0129908,0.00326118,-0.0494434,-0.0640022,0.872442,0.454209,0.463457,-0.430566,2.02421,-0.718625,1.34255,-11.7365,0.463457,-0.430566,11.818,0,1000,0,0,0,0,
589.325,119.604,-0.464394,173.834,0.502449,0.862923,0.0485222,0.0235564,-0.0900502,0.0149141,5.93477,-0.298698,0.138314,-2.01843,0.697569,0.52636,-0.408262,43.97,96.694,0.024999,-0.120067,0.0165137,8.51364,-0.0101923,0.00529923,-0.0499489,0.0741392,0.840083,0.468078,0.0866961,-0.31312,2.01912,-0.219319,1.1903,-11.7552,0.0866961,-0.31312,11.8129,0,1000,0,0,0,0,
589.35,111.165,-1.41207,173.843,0.564906,0.823314,0.051254,0.0202016,-0.0902456,0.0272046,5.92119,-0.626065,0.108202,-1.9478,0.674675,0.550136,-0.413792,43.95,96.665,0.025001,-0.124762,0.0373238,8.50042,-0.0129878,-0.000638684,-0.0491869,0.229344,0.799623,0.486892,0.148816,-0.665011,1.93215,-0.384719,1.15829,-11.6821,0.148816,-0.665011,11.7259,0,1000,0,0,0,0,
589.376,102.728,-2.3619,173.988,0.624225,0.779211,0.0538058,0.0166596,-0.0951544,0.0399666,5.92691,-0.313778,0.114658,-1.95479,0.649336,0.564656,-0.407921,43.965,96.627,0.024999,-0.129545,0.0512678,8.49602,-0.0108984,0.00262054,-0.0491973,0.367358,0.728464,0.491184,-0.00165544,-0.404425,1.94145,0.0898335,1.13958,-11.6864,-0.00165544,-0.404425,11.7352,0,1000,0,0,0,0,
589.401,94.297,-3.30445,174.27,0.680024,0.730918,0.0562129,0.0128679,-0.0932231,0.0557669,5.90822,-0.576823,0.112393,-1.90454,0.631597,0.57386,-0.410148,43.97,96.594,0.025001,-0.131197,0.0768643,8.48262,-0.0113553,0.000983998,-0.0480869,0.483318,0.641738,0.501026,-0.026719,-0.689683,1.86982,-0.0122967,1.08859,-11.6331,-0.026719,-0.689683,11.6636,0,1000,0,0,0,0,
589.426,85.8733,-4.20893,174.687,0.731986,0.678752,0.0584086,0.00892436,-0.09529,0.0682967,5.89919,-0.407763,0.18967,-1.94368,0.613829,0.587049,-0.412457,43.97,96.581,0.024999,-0.132457,0.0919205,8.46361,-0.0115391,0.00221744,-0.048624,0.586511,0.537229,0.508845,-0.0307408,-0.549205,1.9177,0.311037,1.09417,-11.669,-0.0307408,-0.549205,11.7114,0,1000,0,0,0,0,
589.452,77.4505,-5.06342,175.232,0.779868,0.623002,0.0604282,0.00481031,-0.0954652,0.0813071,5.88627,-0.368324,0.227795,-1.91334,0.597215,0.617539,-0.409426,43.97,96.568,0.025,-0.132688,0.114019,8.44786,-0.0105772,0.00442188,-0.0485203,0.68793,0.414778,0.510256,-0.0503015,-0.538784,1.88563,0.496056,1.03868,-11.6351,-0.0503015,-0.538784,11.6794,0,1000,0,0,0,0,
589.477,69.0235,-5.84225,175.903,0.823446,0.563976,0.0621935,0.000563912,-0.0884111,0.0895445,5.8765,-0.484214,0.161388,-1.88469,0.590711,0.642681,-0.424291,43.97,96.518,0.025,-0.12794,0.128604,8.43396,-0.0120671,0.00316783,-0.0477939,0.763521,0.28548,0.526819,-0.216794,-0.638962,1.83229,0.512691,0.857528,-11.6027,-0.216794,-0.638962,11.626,0,1000,0,0,0,0,
589.502,60.5987,-6.5201,176.691,0.862473,0.502074,0.0636235,-0.00378891,-0.0802879,0.094621,5.86175,-0.463479,0.142587,-1.91859,0.586822,0.659985,-0.413481,43.97,96.493,0.025001,-0.117083,0.135922,8.41205,-0.0114255,0.00365926,-0.0473737,0.814315,0.151584,0.514608,-0.305765,-0.606982,1.85855,0.648618,0.704275,-11.6328,-0.305765,-0.606982,11.6523,0,1000,0,0,0,0,
589.527,52.1682,-7.07914,177.579,0.89681,0.437582,0.0647072,-0.00820431,-0.0768032,0.0965246,5.85609,-0.493236,0.52301,-1.95096,0.580324,0.687865,-0.411454,43.965,96.468,0.024999,-0.108216,0.140548,8.39851,-0.0114738,0.00896696,-0.0474114,0.849032,0.00115018,0.508303,-0.101595,-0.848437,1.8955,0.713746,0.933506,-11.6614,-0.101595,-0.848437,11.6892,0,1000,0,0,0,0,
589.553,43.7365,-7.50063,178.548,0.92629,0.370877,0.0654073,-0.0126252,-0.0678577,0.0927105,5.83812,-0.562912,0.183866,-1.91433,0.582596,0.725072,-0.412129,43.97,96.442,0.025001,-0.100156,0.140003,8.383,-0.0131356,0.00735715,-0.0470392,0.870639,-0.155681,0.50274,-0.490642,-0.656712,1.82848,0.715535,0.429953,-11.6212,-0.490642,-0.656712,11.6222,0,1000,0,0,0,0,
589.578,35.3145,-7.76466,179.59,0.950769,0.302393,0.0656004,-0.0171348,-0.0447519,0.0829082,5.82343,-0.575354,0.0664149,-1.89435,0.588789,0.742366,-0.413674,43.965,96.401,0.024999,-0.07518,0.130021,8.36058,-0.0126487,0.000643963,-0.0472723,0.857265,-0.298818,0.494684,-0.643514,-0.520651,1.79967,0.747825,0.13587,-11.5981,-0.643514,-0.520651,11.5934,0,1000,0,0,0,0,
589.603,26.9059,-7.85969,-179.324,0.970164,0.232489,0.0652836,-0.0216703,-0.0393038,0.0774418,5.80966,-0.476465,0.291438,-1.86099,0.596203,0.766318,-0.4139,43.97,96.379,0.025,-0.0553893,0.116455,8.34028,-0.0131887,0.0070468,-0.0464644,0.826269,-0.445462,0.482553,-0.505586,-0.607987,1.77482,0.862806,0.176929,-11.5621,-0.505586,-0.607987,11.5686,0,1000,0,0,0,0,
589.629,18.5135,-7.78935,-178.229,0.984412,0.161504,0.0645496,-0.0261439,-0.031331,0.0720914,5.7989,-0.285535,0.127436,-1.83016,0.603628,0.788947,-0.412687,43.97,96.354,0.025,-0.0465081,0.109747,8.32382,-0.00842427,0.00284548,-0.0458702,0.771673,-0.586658,0.466334,-0.444443,-0.342805,1.76981,1.04183,-0.172474,-11.5289,-0.444443,-0.342805,11.5636,0,1000,0,0,0,0,
589.654,10.1542,-7.55034,-177.152,0.993463,0.0899071,0.0633681,-0.0305288,-0.0278272,0.0641861,5.77907,-0.337262,0.275625,-1.85315,0.619817,0.820886,-0.418414,43.97,96.342,0.025001,-0.0371441,0.0979741,8.29743,-0.00947629,0.00536366,-0.0457891,0.704252,-0.727908,0.455276,-0.501951,-0.463124,1.77692,0.949609,-0.206854,-11.55,-0.501951,-0.463124,11.5707,0,1000,0,0,0,0,
589.679,1.82007,-7.14632,-176.127,0.997327,0.0179483,0.0617439,-0.034712,-0.030199,0.052038,5.77368,-0.465977,0.220662,-1.8573,0.638721,0.827655,-0.412237,43.965,96.287,0.024999,-0.0403535,0.0843752,8.28515,-0.0114131,0.00757482,-0.0456631,0.616362,-0.834455,0.432089,-0.679704,-0.367386,1.7659,0.752401,-0.435734,-11.5528,-0.679704,-0.367386,11.5596,0,1000,0,0,0,0,
589.705,-6.47527,-6.58495,-175.175,0.996009,-0.0539206,0.0596636,-0.0387133,-0.0281733,0.043241,5.75545,-0.353282,0.0894497,-1.80054,0.660043,0.847666,-0.417542,43.96,96.262,0.025001,-0.0386617,0.0681866,8.26476,-0.0116107,0.00309353,-0.0449259,0.513005,-0.943654,0.418185,-0.579421,-0.176352,1.73434,0.769827,-0.728836,-11.4952,-0.579421,-0.176352,11.5281,0,1000,0,0,0,0,
589.73,-14.7294,-5.88641,-174.318,0.989551,-0.125334,0.057205,-0.0425177,-0.0301719,0.0378088,5.74526,-0.287432,0.225808,-1.78548,0.681427,0.858375,-0.422655,43.97,96.241,0.025,-0.0378015,0.0594146,8.2448,-0.00875355,0.00461692,-0.0448571,0.39446,-1.03015,0.403707,-0.552605,-0.269842,1.71563,0.716982,-0.738742,-11.4797,-0.552605,-0.269842,11.5094,0,1000,0,0,0,0,
589.755,-22.9432,-5.06836,-173.579,0.978021,-0.195949,0.0543915,-0.0460523,-0.0354337,0.0310959,5.72877,-0.325556,0.168088,-1.77984,0.7041,0.867828,-0.413571,43.97,96.216,0.025,-0.0434992,0.0524292,8.22704,-0.00971027,0.00470994,-0.044155,0.266123,-1.09934,0.374901,-0.583696,-0.150445,1.71427,0.539665,-0.922896,-11.4741,-0.583696,-0.150445,11.508,0,1000,0,0,0,0,
589.78,-31.1089,-4.14754,-172.973,0.96153,-0.265338,0.051218,-0.0493151,-0.0391486,0.0256036,5.71042,-0.41128,0.253178,-1.76319,0.728045,0.874597,-0.411451,43.97,96.178,0.024999,-0.0483694,0.0427032,8.20123,-0.0098917,0.00469216,-0.0440529,0.128561,-1.1502,0.353232,-0.698929,-0.123649,1.68473,0.297053,-0.941817,-11.4579,-0.698929,-0.123649,11.4785,0,1000,0,0,0,0,
589.806,-39.2334,-3.1469,-172.514,0.940198,-0.333195,0.0477179,-0.0522702,-0.0427543,0.0205463,5.69432,-0.383606,0.125497,-1.76058,0.752009,0.877355,-0.414898,43.97,96.153,0.025,-0.0557696,0.0356534,8.17958,-0.0103811,0.00431645,-0.0437204,-0.01539,-1.18026,0.337891,-0.593986,0.0282505,1.70556,0.154033,-1.14855,-11.4562,-0.593986,0.0282505,11.4993,0,1000,0,0,0,0,
589.831,-47.3162,-2.09175,-172.207,0.914185,-0.399148,0.0439428,-0.0549218,-0.0458168,0.0186242,5.67943,-0.476298,0.278628,-1.73369,0.774643,0.890748,-0.415783,43.955,96.124,0.025,-0.0607536,0.0319416,8.15316,-0.0108876,0.00473419,-0.0435877,-0.172575,-1.19778,0.31925,-0.739989,0.0484562,1.66139,-0.118829,-1.04839,-11.4305,-0.739989,0.0484562,11.4551,0,1000,0,0,0,0,
589.856,-55.3662,-1.00701,-172.059,0.883654,-0.462909,0.0399297,-0.0572394,-0.0512756,0.0219839,5.66206,-0.388027,0.221307,-1.73144,0.802504,0.877586,-0.41877,43.97,96.09,0.025,-0.0670986,0.0311224,8.12993,-0.0101948,0.0052218,-0.0431252,-0.309671,-1.18281,0.307576,-0.614472,0.0830637,1.67719,-0.215904,-1.13148,-11.4298,-0.614472,0.0830637,11.4709,0,1000,0,0,0,0,
589.881,-63.3957,0.0825371,-172.067,0.848766,-0.524223,0.0357371,-0.0592357,-0.0505867,0.022376,5.65284,-0.293041,0.277983,-1.7305,0.821503,0.869746,-0.409462,43.97,96.065,0.025001,-0.0695142,0.0341182,8.11296,-0.00935236,0.00526787,-0.0433222,-0.452672,-1.14597,0.284314,-0.589882,0.0295959,1.67599,-0.307149,-1.07378,-11.4305,-0.589882,0.0295959,11.4697,0,1000,0,0,0,0,
589.907,-71.4162,1.15581,-172.227,0.809694,-0.582839,0.031387,-0.0609078,-0.0522276,0.0234257,5.64634,-0.440006,0.202683,-1.69509,0.843022,0.859168,-0.421199,43.97,96.039,0.025,-0.0709551,0.0370371,8.10168,-0.00977112,0.00519344,-0.0428399,-0.590338,-1.09411,0.284062,-0.53723,0.248329,1.66064,-0.637558,-1.12163,-11.3969,-0.53723,0.248329,11.4544,0,1000,0,0,0,0,
589.932,-79.4287,2.19586,-172.532,0.766669,-0.638447,0.0268938,-0.0623019,-0.050254,0.024739,5.6339,-0.208063,0.182597,-1.74673,0.867138,0.842054,-0.412938,43.97,96.014,0.024999,-0.0679137,0.0357367,8.08645,-0.00878701,0.00444335,-0.043021,-0.712422,-1.02611,0.266552,-0.427273,0.0651792,1.7149,-0.583316,-1.08932,-11.4503,-0.427273,0.0651792,11.5086,0,1000,0,0,0,0,
589.957,-87.4321,3.18181,-172.977,0.719963,-0.690751,0.0222843,-0.0634037,-0.0481532,0.0197967,5.61856,-0.487579,0.178025,-1.6874,0.884887,0.830167,-0.416306,43.97,95.989,0.025,-0.0654608,0.0345112,8.06539,-0.0114198,0.00319829,-0.0421346,-0.833602,-0.939114,0.262082,-0.400325,0.377524,1.67749,-1.03118,-1.01762,-11.3927,-0.400325,0.377524,11.4712,0,1000,0,0,0,0,
589.983,-95.4307,4.09672,-173.556,0.669835,-0.739522,0.0175453,-0.0641937,-0.0522442,0.0178347,5.5997,-0.42079,0.201287,-1.66479,0.902703,0.808988,-0.418071,43.95,95.935,0.025,-0.067645,0.031746,8.04494,-0.0102763,0.00481603,-0.0421966,-0.93439,-0.838922,0.259313,-0.356436,0.3384,1.65757,-1.12046,-0.895111,-11.3718,-0.356436,0.3384,11.4513,0,1000,0,0,0,0,
590.008,-103.424,4.91885,-174.256,0.616582,-0.784528,0.0127329,-0.0646545,-0.0509845,0.0215147,5.58701,-0.441774,0.268396,-1.65753,0.910425,0.787783,-0.414541,43.97,95.939,0.025001,-0.0684991,0.0325397,8.02067,-0.0104412,0.00429267,-0.0419176,-1.01998,-0.718521,0.254329,-0.351215,0.393319,1.65425,-1.28154,-0.70812,-11.3662,-0.351215,0.393319,11.448,0,1000,0,0,0,0,
590.033,-111.413,5.63202,-175.066,0.56048,-0.825594,0.00786397,-0.0647742,-0.052058,0.0220326,5.57136,-0.397344,0.205609,-1.63633,0.919428,0.763913,-0.415152,43.97,95.901,0.024999,-0.0708697,0.03431,7.99816,-0.0102047,0.00406295,-0.0414152,-1.08831,-0.59271,0.255999,-0.235141,0.346969,1.64379,-1.35849,-0.632679,-11.3467,-0.235141,0.346969,11.4375,0,1000,0,0,0,0,
590.058,-119.403,6.22454,-175.966,0.501795,-0.862567,0.00296915,-0.0645775,-0.0521814,0.0222756,5.55613,-0.40236,0.153783,-1.62502,0.924622,0.742679,-0.415951,43.95,95.872,0.025001,-0.0705988,0.0344143,7.97956,-0.0127532,0.00432504,-0.0411224,-1.14148,-0.456939,0.260285,-0.122566,0.327805,1.64431,-1.46425,-0.53111,-11.3369,-0.122566,0.327805,11.4381,0,1000,0,0,0,0,
590.084,-127.397,6.67882,-176.936,0.440791,-0.895321,-0.00187326,-0.0640285,-0.0492167,0.0297409,5.55408,-0.340237,0.22851,-1.63965,0.92849,0.730741,-0.415571,43.965,95.834,0.025,-0.0671478,0.0421143,7.96559,-0.008168,0.00354198,-0.0408294,-1.18398,-0.310711,0.265377,-0.160467,0.310125,1.65364,-1.47929,-0.29146,-11.353,-0.160467,0.310125,11.4474,0,1000,0,0,0,0,
590.109,-135.4,6.99109,-177.96,0.377689,-0.923753,-0.00668969,-0.0631456,-0.0504597,0.0293025,5.54301,-0.373646,0.247846,-1.64341,0.931219,0.700192,-0.416264,43.95,95.796,0.025,-0.0667087,0.0454402,7.96247,-0.0106154,0.00554645,-0.0405815,-1.19375,-0.173635,0.274819,-0.0925043,0.338822,1.66688,-1.56569,-0.0982605,-11.3582,-0.0925043,0.338822,11.4606,0,1000,0,0,0,0,
590.134,-143.389,7.15819,-179.014,0.312949,-0.947677,-0.0114543,-0.061962,-0.0486938,0.0270285,5.53149,-0.445995,0.161056,-1.64031,0.926349,0.673597,-0.415895,43.97,95.788,0.024999,-0.0657877,0.0457191,7.94052,-0.0107066,0.00354277,-0.0403347,-1.18415,-0.0318262,0.285662,0.0785753,0.29415,1.68011,-1.66639,-0.0061416,-11.3563,0.0785753,0.29415,11.4739,0,1000,0,0,0,0,
590.159,-151.363,7.17514,179.922,0.246865,-0.967027,-0.0161318,-0.0604626,-0.0472186,0.032293,5.51727,-0.472354,0.210907,-1.54729,0.921505,0.644372,-0.409822,43.97,95.762,0.025001,-0.063927,0.0489652,7.92207,-0.00774657,0.00478507,-0.0399197,-1.15602,0.102301,0.292382,0.141605,0.31523,1.59446,-1.69562,0.224103,-11.2643,0.141605,0.31523,11.3882,0,1000,0,0,0,0,
590.185,-159.312,7.05,178.871,0.179805,-0.98173,-0.0207102,-0.0587167,-0.0445667,0.0293912,5.50317,-0.453339,0.210253,-1.56246,0.912825,0.620402,-0.412466,43.955,95.725,0.024999,-0.0617527,0.0450405,7.89855,-0.0114773,0.00346569,-0.0395197,-1.11252,0.234229,0.30936,0.177665,0.258895,1.61009,-1.65538,0.401706,-11.2803,0.177665,0.258895,11.4038,0,1000,0,0,0,0,
590.21,-167.227,6.78697,177.85,0.112125,-0.991753,-0.0251909,-0.0567324,-0.0481032,0.0239139,5.47634,-0.154459,0.173691,-1.58927,0.895231,0.608357,-0.412842,43.97,95.699,0.025,-0.0624744,0.0409272,7.87174,-0.00843653,0.00553484,-0.0391905,-1.04812,0.369867,0.326521,-0.0594054,0.103385,1.60174,-1.31187,0.53845,-11.3075,-0.0594054,0.103385,11.3955,0,1000,0,0,0,0,
590.235,-175.098,6.38536,176.879,0.0442014,-0.9971,-0.0295435,-0.0544596,-0.0478427,0.0269064,5.45589,-0.46181,0.236407,-1.52265,0.880185,0.592326,-0.415872,43.97,95.674,0.025,-0.0635878,0.0444107,7.83922,-0.00723362,0.00504336,-0.0387239,-0.969721,0.487721,0.346835,0.274279,0.177253,1.57511,-1.55102,0.766261,-11.2412,0.274279,0.177253,11.3689,0,1000,0,0,0,0,
590.261,177.073,5.86642,175.978,-0.023694,-0.997795,-0.0337313,-0.0520187,-0.0452938,0.0228598,5.43932,-0.329369,0.227589,-1.51985,0.863884,0.57632,-0.411884,43.95,95.632,0.025001,-0.0613414,0.0353617,7.81187,-0.00763125,0.0039396,-0.038279,-0.876426,0.59153,0.360635,0.176977,0.111525,1.55771,-1.33038,0.910987,-11.2383,0.176977,0.111525,11.3515,0,1000,0,0,0,0,
590.286,169.293,5.24234,175.157,-0.0911959,-0.993889,-0.0377549,-0.0494294,-0.0474864,0.0158738,5.41283,-0.164007,0.0923567,-1.56835,0.84383,0.554969,-0.410745,43.97,95.624,0.024999,-0.0622871,0.0260624,7.7789,-0.00703204,0.00304626,-0.03873,-0.770325,0.67315,0.377121,0.011977,-0.0433483,1.57896,-1.05885,0.915657,-11.2863,0.011977,-0.0433483,11.3727,0,1000,0,0,0,0,
590.311,161.563,4.52397,174.429,-0.157992,-0.985458,-0.0416155,-0.046692,-0.05131,0.00752139,5.388,-0.303631,0.22818,-1.50738,0.824955,0.544218,-0.416842,43.96,95.595,0.025001,-0.0655853,0.018507,7.74542,-0.00803973,0.00369829,-0.038261,-0.656667,0.747213,0.401178,0.198775,0.0188738,1.54162,-1.07612,1.17597,-11.2245,0.198775,0.0188738,11.3354,0,1000,0,0,0,0,
590.336,153.886,3.72692,173.799,-0.223754,-0.972603,-0.0453272,-0.0438439,-0.0565657,0.0027742,5.36663,-0.252447,0.103788,-1.48711,0.801002,0.538782,-0.417577,43.97,95.561,0.024999,-0.0733936,0.0096602,7.70833,-0.00674171,0.00204467,-0.0380726,-0.529438,0.805812,0.420265,0.113966,-0.119853,1.50288,-0.889052,1.15947,-11.203,0.113966,-0.119853,11.2966,0,1000,0,0,0,0,
590.362,146.255,2.86318,173.274,-0.288247,-0.955433,-0.0488812,-0.0408876,-0.0626883,-0.00228397,5.34338,-0.398835,0.147699,-1.51089,0.78218,0.524128,-0.406644,43.965,95.536,0.025001,-0.0816507,0.00233502,7.67727,-0.0076861,0.00208392,-0.0375631,-0.406223,0.840082,0.425582,0.251365,-0.204336,1.53582,-0.888043,1.29334,-11.2251,0.251365,-0.204336,11.3296,0,1000,0,0,0,0,
590.387,138.668,1.94565,172.856,-0.351196,-0.934074,-0.052309,-0.0378411,-0.073731,-0.00488462,5.32639,-0.282039,0.0916014,-1.49687,0.755632,0.529314,-0.406275,43.97,95.51,0.024999,-0.0956634,-0.00298319,7.6464,-0.00951563,0.00309568,-0.0372168,-0.265539,0.865695,0.443027,0.11058,-0.224144,1.50535,-0.614551,1.30897,-11.209,0.11058,-0.224144,11.2991,0,1000,0,0,0,0,
590.412,123.587,-0.020491,172.357,-0.471612,-0.879284,-0.0588181,-0.0313443,-0.0925756,0.000521136,5.28792,-0.269277,0.122817,-1.47999,0.710133,0.533007,-0.420667,43.965,95.447,0.025,-0.124543,0.00464719,7.59977,-0.00942308,0.00440581,-0.0369497,0.000720121,0.852719,0.488074,0.0866839,-0.266315,1.48308,-0.265774,1.42539,-11.1867,0.0866839,-0.266315,11.2768,0,1000,0,0,0,0,
590.437,116.091,-1.04434,172.293,-0.528545,-0.846192,-0.0618342,-0.0278531,-0.0924316,0.0118919,5.2768,-0.321656,0.119643,-1.47984,0.686056,0.547537,-0.413337,43.95,95.418,0.025001,-0.129995,0.015009,7.57481,-0.00755559,0.00207957,-0.0367006,0.139706,0.822387,0.495459,0.081564,-0.348239,1.47641,-0.143154,1.43289,-11.1835,0.081564,-0.348239,11.2702,0,1000,0,0,0,0,
590.463,108.622,-2.07412,172.36,-0.582973,-0.809555,-0.0646337,-0.0241906,-0.0936468,0.0178898,5.24972,-0.363114,-0.0562991,-1.44881,0.669604,0.55276,-0.415436,43.97,95.384,0.025,-0.131736,0.0248216,7.54719,-0.00870367,0.000520495,-0.0361009,0.258763,0.774796,0.50915,-0.103017,-0.472193,1.41439,-0.00865638,1.24484,-11.1493,-0.103017,-0.472193,11.2081,0,1000,0,0,0,0,
590.488,101.175,-3.09282,172.56,-0.63468,-0.769577,-0.0672087,-0.0203738,-0.0975457,0.0228029,5.23707,-0.402097,0.164272,-1.4455,0.654372,0.56599,-0.412008,43.97,95.359,0.025,-0.132863,0.0348087,7.51834,-0.0106345,0.0021265,-0.0361827,0.376639,0.713958,0.516435,0.069193,-0.475601,1.43079,0.126311,1.43066,-11.1426,0.069193,-0.475601,11.2245,0,1000,0,0,0,0,
590.513,93.7442,-4.08451,172.885,-0.683492,-0.726449,-0.0695716,-0.016433,-0.0973771,0.0335512,5.21658,-0.372878,0.0619654,-1.39315,0.633989,0.592451,-0.414679,43.97,95.334,0.025,-0.13626,0.0452815,7.49251,-0.00898003,0.00136396,-0.0356634,0.496341,0.631604,0.528792,-0.0800746,-0.477193,1.36001,0.324708,1.27193,-11.0868,-0.0800746,-0.477193,11.1538,0,1000,0,0,0,0,
590.538,86.3218,-5.03825,173.336,-0.729246,-0.68037,-0.0717257,-0.0123393,-0.09795,0.0439654,5.20244,-0.284702,0.0508492,-1.40609,0.618768,0.603008,-0.414018,43.97,95.309,0.025,-0.136181,0.0603404,7.46986,-0.00892865,0.00244761,-0.0353008,0.586585,0.537595,0.533678,-0.138528,-0.398704,1.37207,0.575392,1.18298,-11.0961,-0.138528,-0.398704,11.1658,0,1000,0,0,0,0,
590.564,78.9008,-5.9385,173.907,-0.771798,-0.631535,-0.0736662,-0.00811502,-0.0967797,0.0523576,5.19065,-0.457993,0.184,-1.36006,0.609797,0.62154,-0.418948,43.97,95.271,0.024999,-0.135904,0.0750352,7.45125,-0.0101196,0.00257295,-0.0350506,0.669983,0.435773,0.543053,-0.0771387,-0.59373,1.31716,0.555277,1.21794,-11.0462,-0.0771387,-0.59373,11.1109,0,1000,0,0,0,0,
590.589,71.4753,-6.76894,174.595,-0.811009,-0.580148,-0.075357,-0.00376174,-0.0928375,0.0628208,5.18021,-0.357791,0.16725,-1.40314,0.600869,0.63614,-0.412497,43.96,95.246,0.025,-0.131168,0.0879189,7.4359,-0.0099175,0.00396441,-0.0350502,0.735607,0.324306,0.538126,-0.133224,-0.505674,1.36064,0.796556,1.08334,-11.0854,-0.133224,-0.505674,11.1544,0,1000,0,0,0,0,
590.614,64.0448,-7.51448,175.395,-0.846732,-0.526452,-0.0767694,0.00073183,-0.0842742,0.0701508,5.16802,-0.359106,0.126141,-1.3383,0.598145,0.665348,-0.414602,43.97,95.221,0.025,-0.121081,0.100601,7.41982,-0.00851685,0.00174431,-0.0338257,0.799211,0.202626,0.540894,-0.216304,-0.486168,1.28561,0.921688,0.90564,-11.0166,-0.216304,-0.486168,11.0794,0,1000,0,0,0,0,
590.64,56.6068,-8.15838,176.296,-0.87885,-0.470668,-0.0778823,0.00532891,-0.0773124,0.0758848,5.15724,-0.381976,0.123027,-1.33127,0.594233,0.683929,-0.415119,43.97,95.196,0.025001,-0.111138,0.109541,7.40574,-0.00826855,0.00283661,-0.0336192,0.835378,0.0759194,0.538122,-0.281788,-0.494271,1.26871,1.00785,0.749306,-11.0056,-0.281788,-0.494271,11.0625,0,1000,0,0,0,0,
590.665,49.1695,-8.68239,177.284,-0.90723,-0.413098,-0.0786456,0.00999496,-0.0681245,0.0778481,5.14289,-0.222034,0.0654297,-1.34438,0.592799,0.707806,-0.421304,43.97,95.158,0.025,-0.0991523,0.112517,7.38484,-0.00866241,0.00256275,-0.0336838,0.858151,-0.0577069,0.53865,-0.275103,-0.320896,1.29703,1.2564,0.52418,-11.015,-0.275103,-0.320896,11.0908,0,1000,0,0,0,0,
590.69,41.7352,-9.07477,178.341,-0.931788,-0.353986,-0.0790536,0.0146912,-0.064419,0.078369,5.12847,-0.339782,0.259789,-1.31312,0.592683,0.726442,-0.413211,43.97,95.133,0.025,-0.0886354,0.113236,7.36486,-0.00897822,0.00218069,-0.0332844,0.86107,-0.188909,0.522116,-0.258196,-0.527372,1.24998,1.20492,0.539788,-10.9802,-0.258196,-0.527372,11.0437,0,1000,0,0,0,0,
590.715,34.3075,-9.32728,179.444,-0.952458,-0.29358,-0.0791141,0.0193609,-0.0597782,0.0746413,5.11269,-0.281769,0.16568,-1.33812,0.601363,0.749052,-0.417603,43.955,95.103,0.024999,-0.0827498,0.112577,7.34556,-0.00735937,0.0035589,-0.0331274,0.853184,-0.319703,0.516697,-0.322959,-0.405221,1.27628,1.30554,0.259422,-11.0019,-0.322959,-0.405221,11.07,0,1000,0,0,0,0,
590.741,26.9009,-9.43208,-179.427,-0.969171,-0.232214,-0.0788016,0.0239736,-0.0522224,0.070911,5.09274,-0.339855,0.0944142,-1.31964,0.607564,0.765017,-0.41912,43.97,95.082,0.025001,-0.0762878,0.107975,7.31752,-0.00786067,0.00238705,-0.0329102,0.822376,-0.445273,0.505448,-0.443004,-0.34543,1.24511,1.26513,-0.00226241,-10.9805,-0.443004,-0.34543,11.0389,0,1000,0,0,0,0,
590.766,19.5273,-9.38599,-178.293,-0.981896,-0.170198,-0.0781045,0.0285071,-0.0497301,0.0661808,5.06732,-0.187497,0.0620217,-1.29645,0.620037,0.787665,-0.419141,43.97,95.044,0.024999,-0.0698982,0.101045,7.28391,-0.00638309,0.00322679,-0.0323898,0.783101,-0.570884,0.491311,-0.339612,-0.227207,1.24613,1.40971,-0.225871,-10.9548,-0.339612,-0.227207,11.0399,0,1000,0,0,0,0,
590.791,12.19,-9.18938,-177.174,-0.99064,-0.107768,-0.0770193,0.0329469,-0.045545,0.0581349,5.04921,-0.396604,0.0511485,-1.27316,0.633795,0.80632,-0.421859,43.96,95.019,0.025001,-0.0634125,0.0924542,7.25324,-0.00859898,0.00101253,-0.0319362,0.726432,-0.688271,0.477905,-0.556745,-0.236762,1.18946,1.16744,-0.425578,-10.9294,-0.556745,-0.236762,10.9832,0,1000,0,0,0,0,
590.816,4.88993,-8.84502,-176.093,-0.995424,-0.045134,-0.075546,0.0372413,-0.0449444,0.0517948,5.02908,-0.245305,0.105067,-1.2945,0.643828,0.817013,-0.418898,43.965,94.994,0.025,-0.0621475,0.0824525,7.22761,-0.00585803,0.00178626,-0.0322208,0.650272,-0.791104,0.456948,-0.421816,-0.229814,1.23135,1.2606,-0.554272,-10.9493,-0.421816,-0.229814,11.0251,0,1000,0,0,0,0,
590.842,-2.3602,-8.36437,-175.075,-0.99627,0.0173889,-0.0737278,0.0413385,-0.0489196,0.0503528,5.00409,-0.406533,0.0542167,-1.27901,0.665165,0.83572,-0.418526,43.95,94.952,0.025,-0.0649988,0.0757882,7.19431,-0.00517099,0.00150321,-0.0319388,0.571584,-0.89286,0.438325,-0.593148,-0.139506,1.197,1.01814,-0.777592,-10.9328,-0.593148,-0.139506,10.9907,0,1000,0,0,0,0,
590.867,-9.55583,-7.75106,-174.139,-0.993234,0.0795511,-0.0715149,0.045208,-0.0544824,0.0381279,4.98573,-0.300535,0.0964661,-1.26788,0.677716,0.8464,-0.421126,43.965,94.952,0.025,-0.0704609,0.062143,7.16076,-0.00971771,0.000848263,-0.0311834,0.471071,-0.976734,0.420859,-0.497515,-0.14485,1.19944,1.02034,-0.894489,-10.9214,-0.497515,-0.14485,10.9932,0,1000,0,0,0,0,
590.892,-16.7048,-7.02615,-173.301,-0.986367,0.141198,-0.0689939,0.048812,-0.0612956,0.0386343,4.96658,-0.322329,0.11712,-1.25562,0.696568,0.859789,-0.419321,43.96,94.906,0.025,-0.079378,0.0583764,7.13643,-0.00672825,0.00225143,-0.031036,0.365609,-1.05233,0.398993,-0.526448,-0.116381,1.18469,0.875665,-1.01677,-10.9095,-0.526448,-0.116381,10.9784,0,1000,0,0,0,0,
590.918,-23.8043,-6.2051,-172.576,-0.97574,0.202078,-0.0661815,0.0521184,-0.0685316,0.037145,4.95174,-0.214515,0.140079,-1.24263,0.723042,0.865215,-0.42415,43.97,94.893,0.025,-0.0908388,0.0556801,7.10983,-0.00690217,0.00246872,-0.0313017,0.258713,-1.11177,0.385141,-0.436053,-0.134952,1.18381,0.844069,-1.11798,-10.8974,-0.436053,-0.134952,10.9776,0,1000,0,0,0,0,
590.943,-30.8604,-5.30913,-171.968,-0.96142,0.261999,-0.0631492,0.0551462,-0.0724838,0.0409936,4.93202,-0.307326,0.0889692,-1.24901,0.73694,0.863958,-0.423634,43.97,94.856,0.025,-0.0976392,0.0599289,7.08728,-0.00645921,0.00173017,-0.0307888,0.136979,-1.14739,0.365667,-0.494638,-0.0103598,1.19064,0.598882,-1.27361,-10.9051,-0.494638,-0.0103598,10.9844,0,1000,0,0,0,0,
590.968,-37.8585,-4.34919,-171.484,-0.943543,0.320607,-0.0598631,0.0579089,-0.0747099,0.0391401,4.90516,-0.242323,0.150607,-1.23134,0.757086,0.872021,-0.425914,43.97,94.818,0.024999,-0.1026,0.0572857,7.04898,-0.00939862,0.00102978,-0.0303508,0.0105525,-1.18039,0.348652,-0.465667,-0.057641,1.17364,0.500384,-1.29558,-10.8892,-0.465667,-0.057641,10.9674,0,1000,0,0,0,0,
590.993,-44.8156,-3.34692,-171.127,-0.922192,0.377804,-0.0563913,0.0603828,-0.0796601,0.0431781,4.89137,-0.204162,0.0384435,-1.19805,0.778608,0.864182,-0.419342,43.96,94.801,0.025,-0.107847,0.0624206,7.02338,-0.00661956,0.00165306,-0.0305562,-0.107653,-1.18786,0.326008,-0.350375,0.0340876,1.16386,0.367612,-1.46959,-10.8581,-0.350375,0.0340876,10.9576,0,1000,0,0,0,0,
591.019,-51.7438,-2.31882,-170.897,-0.897451,0.433451,-0.0527692,0.0625856,-0.0803975,0.0489043,4.87798,-0.361232,0.125616,-1.21536,0.797539,0.865618,-0.415877,43.97,94.78,0.025,-0.109699,0.0694859,7.00555,-0.00762555,0.00159296,-0.0302961,-0.236274,-1.18702,0.305734,-0.501438,0.125065,1.1646,0.0350226,-1.42259,-10.8778,-0.501438,0.125065,10.9583,0,1000,0,0,0,0,
591.044,-58.6384,-1.27868,-170.797,-0.869479,0.487285,-0.0489813,0.0645014,-0.0801592,0.050999,4.85991,-0.201997,-0.0616643,-1.19086,0.815243,0.860372,-0.419381,43.95,94.763,0.025,-0.113129,0.0732011,6.97907,-0.00690075,0.00086177,-0.0298665,-0.361522,-1.16761,0.294497,-0.229531,0.127583,1.18059,0.0165527,-1.62769,-10.8561,-0.229531,0.127583,10.9743,0,1000,0,0,0,0,
591.069,-65.5129,-0.243692,-170.82,-0.838371,0.539189,-0.045084,0.0661558,-0.0820405,0.0551192,4.8453,-0.364615,0.186452,-1.18335,0.832959,0.855161,-0.415824,43.97,94.717,0.025001,-0.111449,0.0803382,6.96116,-0.00779499,0.00198435,-0.0295253,-0.483884,-1.13438,0.277602,-0.492459,0.181676,1.13689,-0.32296,-1.37608,-10.8516,-0.492459,0.181676,10.9306,0,1000,0,0,0,0,
591.095,-72.3718,0.7754,-170.968,-0.804267,0.588991,-0.0410401,0.0675284,-0.0822163,0.0579829,4.83521,-0.336826,0.10654,-1.18328,0.849423,0.845899,-0.424943,43.97,94.692,0.025,-0.113902,0.0831747,6.94392,-0.00715431,0.00255872,-0.0295001,-0.601367,-1.08636,0.275363,-0.374582,0.218006,1.15634,-0.469364,-1.43075,-10.8547,-0.374582,0.218006,10.9501,0,1000,0,0,0,0,
591.12,-79.2154,1.76408,-171.235,-0.767334,0.636495,-0.0368871,0.0686522,-0.0784493,0.057675,4.81932,-0.244522,0.0695113,-1.18026,0.868436,0.835386,-0.419819,43.955,94.675,0.024999,-0.111581,0.0854323,6.92279,-0.00886554,0.00126658,-0.0294067,-0.709813,-1.02785,0.260743,-0.283241,0.158626,1.16287,-0.546014,-1.42222,-10.855,-0.283241,0.158626,10.9566,0,1000,0,0,0,0,
591.145,-86.0505,2.70739,-171.614,-0.727714,0.681567,-0.0326513,0.0695139,-0.0786458,0.0606911,4.80542,-0.363641,0.132895,-1.12741,0.882439,0.816818,-0.427422,43.97,94.641,0.025001,-0.109214,0.0894448,6.90447,-0.00902891,0.00324603,-0.0285289,-0.806654,-0.953625,0.261703,-0.316649,0.290346,1.11192,-0.826251,-1.29386,-10.8056,-0.316649,0.290346,10.9057,0,1000,0,0,0,0,
591.17,-92.8751,3.59223,-172.097,-0.685603,0.724035,-0.0283624,0.070125,-0.0731348,0.0638117,4.78971,-0.279825,0.0878709,-1.1085,0.897667,0.806282,-0.423846,43.97,94.604,0.024999,-0.104793,0.0933353,6.88123,-0.00693916,0.00238274,-0.0286412,-0.901732,-0.871128,0.252109,-0.228554,0.222984,1.10129,-0.893454,-1.25609,-10.7902,-0.228554,0.222984,10.895,0,1000,0,0,0,0,
591.196,-99.6944,4.40788,-172.673,-0.641156,0.763786,-0.0240537,0.0705043,-0.068897,0.0658467,4.77719,-0.282342,0.17901,-1.11198,0.907897,0.789104,-0.414661,43.97,94.578,0.025001,-0.0968347,0.096825,6.86108,-0.00771151,0.00287887,-0.0281633,-0.980063,-0.775118,0.239945,-0.281372,0.24944,1.09857,-1.03505,-1.06629,-10.797,-0.281372,0.24944,10.8923,0,1000,0,0,0,0,
591.221,-106.505,5.14695,-173.334,-0.594582,0.800681,-0.0197195,0.070665,-0.0646595,0.0659306,4.75961,-0.308184,0.174077,-1.12377,0.914363,0.766552,-0.413973,43.97,94.541,0.024999,-0.0902543,0.0969134,6.83683,-0.00731955,0.00294351,-0.0281541,-1.04301,-0.670905,0.238867,-0.231576,0.286206,1.11919,-1.18679,-0.958182,-10.8121,-0.231576,0.286206,10.9129,0,1000,0,0,0,0,
591.246,-113.308,5.80369,-174.069,-0.546068,0.834616,-0.0153718,0.0706363,-0.0569044,0.061811,4.7417,-0.292689,0.0423903,-1.10222,0.923312,0.749312,-0.416131,43.97,94.541,0.025,-0.0816567,0.0938126,6.81287,-0.00826632,0.00139334,-0.0275002,-1.10089,-0.56296,0.241384,-0.0717988,0.227767,1.11594,-1.28304,-0.964443,-10.7936,-0.0717988,0.227767,10.9097,0,1000,0,0,0,0,
591.272,-120.098,6.37066,-174.865,-0.495831,0.865488,-0.0110416,0.0704281,-0.0499454,0.0586302,4.72189,-0.339089,0.0540612,-1.10551,0.92597,0.729392,-0.417043,43.97,94.503,0.025,-0.0718154,0.0904546,6.78555,-0.00701856,-0.000732239,-0.0272628,-1.14178,-0.446754,0.245177,-0.0241959,0.262943,1.12709,-1.4258,-0.817127,-10.7997,-0.0241959,0.262943,10.9208,0,1000,0,0,0,0,
591.297,-126.877,6.84221,-175.718,-0.444054,0.893236,-0.00669071,0.0700137,-0.0515653,0.057729,4.70846,-0.208213,0.118298,-1.07791,0.928629,0.709482,-0.415131,43.97,94.478,0.025001,-0.0691222,0.0864354,6.76046,-0.00669487,0.00311298,-0.0269882,-1.16985,-0.32877,0.247795,-0.110901,0.182862,1.08328,-1.37499,-0.607737,-10.7748,-0.110901,0.182862,10.877,0,1000,0,0,0,0,
591.322,-133.648,7.21208,-176.619,-0.390899,0.917812,-0.0023206,0.0693806,-0.051274,0.0567666,4.68949,-0.0848442,0.106099,-1.06229,0.926199,0.696204,-0.410708,43.965,94.452,0.025,-0.0687753,0.0836109,6.74012,-0.00463576,0.00245978,-0.0265955,-1.18662,-0.201981,0.249744,-0.155215,0.0814846,1.0565,-1.31437,-0.466849,-10.7616,-0.155215,0.0814846,10.8502,0,1000,0,0,0,0,
591.347,-140.391,7.47346,-177.554,-0.336707,0.939111,0.00203431,0.0685207,-0.0504171,0.0512976,4.66105,-0.223867,0.155261,-1.09179,0.922621,0.664287,-0.413009,43.97,94.415,0.025,-0.0680851,0.0823282,6.70213,-0.00593406,0.00266267,-0.0268069,-1.17763,-0.0901945,0.261011,-0.0662423,0.207019,1.10408,-1.49771,-0.259229,-10.7935,-0.0662423,0.207019,10.8978,0,1000,0,0,0,0,
591.373,-147.106,7.63346,-178.511,-0.281646,0.957119,0.00641032,0.067507,-0.0530726,0.046634,4.63862,-0.296194,0.0832625,-1.0534,0.916319,0.661582,-0.415998,43.97,94.402,0.024999,-0.0702307,0.0721498,6.66888,-0.00514289,0.00253282,-0.0265432,-1.17211,0.0424169,0.273414,0.0692202,0.176496,1.08092,-1.59715,-0.168977,-10.7571,0.0692202,0.176496,10.8747,0,1000,0,0,0,0,
591.398,-153.798,7.6919,-179.478,-0.225859,0.971838,0.0107803,0.066357,-0.0534799,0.0389616,4.62326,-0.178372,0.27617,-1.03632,0.910216,0.631009,-0.412766,43.96,94.36,0.025001,-0.0707307,0.0611651,6.64227,-0.00675117,0.00463594,-0.0262455,-1.13848,0.147184,0.281514,-0.0916441,0.273202,1.04834,-1.48923,0.187818,-10.7415,-0.0916441,0.273202,10.8421,0,1000,0,0,0,0,
591.423,-160.454,7.64643,179.555,-0.169617,0.983244,0.0151385,0.0650521,-0.0544054,0.0337917,4.5993,-0.129663,-0.0118624,-1.03674,0.902736,0.61635,-0.414144,43.965,94.339,0.024999,-0.0740876,0.0530387,6.60725,-0.00698801,0.00325006,-0.0266008,-1.1008,0.259805,0.295078,-0.00221503,-0.0219226,1.04465,-1.43281,0.0635664,-10.7431,-0.00221503,-0.0219226,10.8384,0,1000,0,0,0,0,
591.449,-167.081,7.49919,178.607,-0.11304,0.991362,0.0194075,0.0636117,-0.0493605,0.0249353,4.5782,-0.350441,0.083993,-1.0072,0.891526,0.595065,-0.408457,43.97,94.314,0.025001,-0.0695883,0.0448965,6.58064,-0.00717085,0.000286143,-0.0254833,-1.04609,0.360204,0.302829,0.197003,0.106219,1.04605,-1.62864,0.320008,-10.7143,0.197003,0.106219,10.8398,0,1000,0,0,0,0,
591.474,-173.676,7.25099,177.685,-0.0563165,0.996205,0.0236136,0.0620135,-0.0535593,0.0255432,4.56282,-0.271432,0.163759,-1.03995,0.877756,0.576369,-0.414212,43.97,94.276,0.024999,-0.0709075,0.0395952,6.55464,-0.00455964,0.00433536,-0.0260305,-0.981874,0.453771,0.322869,0.123042,0.136007,1.07161,-1.50756,0.556128,-10.7474,0.123042,0.136007,10.8654,0,1000,0,0,0,0,
591.499,179.764,6.90577,176.799,0.0003738,0.997797,0.0277555,0.0602616,-0.0523299,0.0221167,4.54768,-0.0378129,-0.00631795,-1.02456,0.860141,0.566968,-0.417469,43.96,94.264,0.025,-0.0734002,0.0344657,6.52979,-0.00353162,0.000761042,-0.0251506,-0.90558,0.546509,0.341802,-0.0856777,-0.0631658,1.01974,-1.21538,0.536586,-10.7321,-0.0856777,-0.0631658,10.8135,0,1000,0,0,0,0,
591.524,173.236,6.46765,175.96,0.0568795,0.996167,0.0318011,0.0583536,-0.0556946,0.016879,4.52982,-0.0928661,0.0421993,-0.984036,0.847558,0.561605,-0.41498,43.97,94.226,0.025001,-0.073936,0.0306835,6.50863,-0.0039382,0.00177896,-0.0249968,-0.82449,0.632491,0.355155,-0.0217056,-0.0248422,0.988759,-1.19606,0.727728,-10.6913,-0.0217056,-0.0248422,10.7825,0,1000,0,0,0,0,
591.55,166.74,5.94679,175.176,0.113035,0.991348,0.0357617,0.0563321,-0.0594923,0.0104752,4.51664,-0.257084,0.121481,-0.963908,0.832548,0.541616,-0.41228,43.98,94.217,0.025,-0.0772715,0.0229985,6.48919,-0.00440519,0.00094886,-0.0243782,-0.736168,0.692348,0.367653,0.160167,0.00334417,0.992121,-1.27176,0.940625,-10.6704,0.160167,0.00334417,10.7859,0,1000,0,0,0,0,
591.575,160.268,5.34979,174.449,0.168729,0.983371,0.039669,0.0542128,-0.0646878,0.00664821,4.51026,0.058065,-0.0716773,-0.954041,0.811006,0.553464,-0.413283,43.97,94.188,0.024999,-0.0859212,0.0150623,6.47784,-9.16E-05,0.000322844,-0.0243837,-0.628373,0.768144,0.387244,-0.192389,-0.104831,0.933113,-0.855064,0.871589,-10.6594,-0.192389,-0.104831,10.7269,0,1000,0,0,0,0,
591.6,153.829,4.68073,173.79,0.223732,0.972292,0.0434866,0.051971,-0.067798,0.00259337,4.49978,-0.132473,-0.0841762,-0.952476,0.794729,0.533461,-0.412038,43.97,94.15,0.025,-0.0914301,0.0109999,6.45975,-0.000964515,-0.00347681,-0.024187,-0.530854,0.802128,0.400918,-0.0325395,-0.192059,0.945463,-0.931675,0.971771,-10.6563,-0.0325395,-0.192059,10.7392,0,1000,0,0,0,0,
591.625,147.426,3.95936,173.2,0.277826,0.958181,0.0472241,0.0497239,-0.0811057,-0.00891182,4.47659,-0.194494,-0.0238265,-1.00709,0.774545,0.529334,-0.421141,43.97,94.138,0.025,-0.103079,-0.00422088,6.43574,-0.0044296,-0.00145938,-0.0245754,-0.422987,0.834797,0.426228,0.0285434,-0.187822,1.00823,-0.870741,1.13309,-10.7087,0.0285434,-0.187822,10.802,0,1000,0,0,0,0,
591.651,141.058,3.18751,172.671,0.330843,0.941111,0.0509855,0.0474653,-0.0995663,-0.0130831,4.46311,-0.0934791,-0.0487039,-0.939087,0.753137,0.521261,-0.42032,43.97,94.1,0.025001,-0.127334,-0.0133174,6.41188,-0.00408569,-0.000290999,-0.0241421,-0.314526,0.849943,0.440758,-0.0730788,-0.157079,0.928968,-0.638049,1.19876,-10.6378,-0.0730788,-0.157079,10.7227,0,1000,0,0,0,0,
591.676,134.724,2.36503,172.206,0.382641,0.921165,0.0547886,0.0451572,-0.117799,-0.0122279,4.44836,-0.239527,-0.0233499,-0.996953,0.739167,0.533151,-0.419641,43.97,94.075,0.024999,-0.153449,-0.0149995,6.38991,-0.00542662,-0.000388422,-0.0241431,-0.199003,0.870707,0.457149,0.0273227,-0.25259,0.993622,-0.643673,1.30367,-10.692,0.0273227,-0.25259,10.7874,0,1000,0,0,0,0,
